,aX,aY,aZ,gX,gY,gZ
0,-9.146,-0.608,1.738,0.348,0.248,-0.194
1,-9.151,-0.618,1.748,0.337,0.239,-0.197
2,-9.17,-0.627,1.748,0.327,0.231,-0.2
3,-9.184,-0.642,1.748,0.313,0.22,-0.202
4,-9.194,-0.651,1.748,0.302,0.212,-0.203
5,-9.203,-0.661,1.757,0.292,0.206,-0.205
6,-9.218,-0.675,1.772,0.278,0.198,-0.205
7,-9.213,-0.69,1.776,0.269,0.195,-0.205
8,-9.213,-0.704,1.772,0.26,0.192,-0.204
9,-9.213,-0.728,1.786,0.249,0.191,-0.203
10,-9.218,-0.752,1.786,0.241,0.192,-0.203
11,-9.218,-0.781,1.786,0.232,0.196,-0.201
12,-9.232,-0.804,1.805,0.227,0.2,-0.199
13,-9.232,-0.819,1.805,0.223,0.205,-0.198
14,-9.237,-0.848,1.805,0.218,0.213,-0.196
15,-9.232,-0.867,1.82,0.215,0.219,-0.195
16,-9.237,-0.886,1.829,0.214,0.226,-0.193
17,-9.237,-0.905,1.839,0.213,0.235,-0.191
18,-9.237,-0.924,1.844,0.212,0.242,-0.189
19,-9.242,-0.934,1.844,0.212,0.248,-0.187
20,-9.246,-0.958,1.844,0.214,0.255,-0.184
21,-9.251,-0.972,1.853,0.216,0.261,-0.183
22,-9.261,-0.991,1.858,0.218,0.265,-0.18
23,-9.27,-1.001,1.853,0.222,0.27,-0.177
24,-9.28,-1.015,1.848,0.225,0.272,-0.175
25,-9.28,-1.02,1.858,0.23,0.273,-0.17
26,-9.29,-1.025,1.848,0.234,0.274,-0.167
27,-9.285,-1.034,1.848,0.239,0.272,-0.163
28,-9.28,-1.034,1.829,0.246,0.268,-0.157
29,-9.27,-1.039,1.815,0.252,0.264,-0.153
30,-9.261,-1.039,1.81,0.257,0.259,-0.148
31,-9.237,-1.039,1.8,0.264,0.251,-0.142
32,-9.218,-1.034,1.8,0.27,0.246,-0.138
33,-9.203,-1.039,1.791,0.276,0.24,-0.134
34,-9.184,-1.03,1.776,0.283,0.234,-0.13
35,-9.175,-1.03,1.767,0.287,0.23,-0.126
36,-9.16,-1.034,1.757,0.292,0.229,-0.124
37,-9.131,-1.049,1.753,0.296,0.229,-0.121
38,-9.117,-1.053,1.738,0.298,0.231,-0.119
39,-9.112,-1.049,1.724,0.3,0.236,-0.117
40,-9.108,-1.049,1.714,0.302,0.245,-0.116
41,-9.103,-1.049,1.7,0.302,0.254,-0.114
42,-9.103,-1.053,1.681,0.301,0.267,-0.112
43,-9.103,-1.063,1.671,0.301,0.277,-0.11
44,-9.108,-1.063,1.671,0.301,0.288,-0.108
45,-9.117,-1.058,1.652,0.299,0.301,-0.105
46,-9.122,-1.053,1.642,0.298,0.31,-0.103
47,-9.131,-1.053,1.623,0.297,0.319,-0.101
48,-9.151,-1.049,1.599,0.296,0.327,-0.098
49,-9.17,-1.049,1.58,0.294,0.332,-0.095
50,-9.189,-1.053,1.556,0.294,0.336,-0.093
51,-9.218,-1.058,1.537,0.291,0.339,-0.09
52,-9.242,-1.058,1.518,0.289,0.339,-0.087
53,-9.275,-1.063,1.508,0.286,0.339,-0.085
54,-9.309,-1.068,1.484,0.282,0.338,-0.082
55,-9.337,-1.073,1.46,0.278,0.335,-0.079
56,-9.371,-1.077,1.437,0.273,0.331,-0.076
57,-9.395,-1.077,1.427,0.269,0.327,-0.073
58,-9.409,-1.077,1.427,0.264,0.322,-0.07
59,-9.424,-1.068,1.413,0.258,0.314,-0.067
60,-9.428,-1.058,1.398,0.253,0.307,-0.064
61,-9.438,-1.049,1.393,0.249,0.3,-0.061
62,-9.443,-1.044,1.374,0.244,0.29,-0.057
63,-9.457,-1.044,1.369,0.239,0.282,-0.055
64,-9.467,-1.039,1.36,0.234,0.272,-0.052
65,-9.462,-1.034,1.331,0.229,0.261,-0.05
66,-9.471,-1.034,1.317,0.225,0.252,-0.049
67,-9.481,-1.025,1.293,0.22,0.244,-0.048
68,-9.481,-1.02,1.279,0.213,0.235,-0.048
69,-9.486,-1.01,1.264,0.208,0.229,-0.049
70,-9.491,-1.01,1.245,0.199,0.223,-0.051
71,-9.495,-1.015,1.235,0.191,0.221,-0.054
72,-9.505,-1.01,1.221,0.184,0.221,-0.056
73,-9.515,-1.006,1.197,0.172,0.222,-0.06
74,-9.519,-1.006,1.188,0.163,0.225,-0.064
75,-9.553,-1.001,1.12,0.121,0.241,-0.08
76,-9.562,-0.996,1.116,0.112,0.243,-0.081
77,-9.577,-0.996,1.116,0.105,0.242,-0.084
78,-9.596,-0.996,1.12,0.096,0.24,-0.086
79,-9.601,-0.991,1.125,0.09,0.236,-0.088
80,-9.601,-0.982,1.125,0.084,0.229,-0.089
81,-9.601,-0.986,1.14,0.079,0.217,-0.09
82,-9.606,-0.986,1.144,0.075,0.207,-0.091
83,-9.606,-0.991,1.149,0.072,0.194,-0.092
84,-9.601,-0.996,1.149,0.069,0.178,-0.092
85,-9.591,-0.996,1.144,0.067,0.167,-0.093
86,-9.577,-1.001,1.154,0.065,0.155,-0.094
87,-9.572,-1.001,1.159,0.064,0.141,-0.096
88,-9.562,-1.006,1.159,0.063,0.132,-0.097
89,-9.548,-1.006,1.164,0.062,0.123,-0.099
90,-9.534,-1.001,1.164,0.061,0.117,-0.1
91,-9.519,-1.006,1.173,0.062,0.113,-0.101
92,-9.491,-1.006,1.183,0.063,0.109,-0.103
93,-9.476,-1.006,1.183,0.065,0.109,-0.104
94,-9.462,-1.015,1.188,0.067,0.109,-0.104
95,-9.438,-1.02,1.168,0.072,0.111,-0.105
96,-9.419,-1.02,1.178,0.076,0.114,-0.106
97,-9.409,-1.025,1.183,0.08,0.117,-0.108
98,-9.4,-1.025,1.202,0.086,0.124,-0.109
99,-9.4,-1.025,1.221,0.092,0.13,-0.11
100,-9.4,-1.034,1.211,0.096,0.136,-0.112
101,-9.39,-1.034,1.207,0.102,0.143,-0.113
102,-9.39,-1.034,1.211,0.106,0.149,-0.114
103,-9.38,-1.034,1.221,0.11,0.153,-0.115
104,-9.39,-1.034,1.221,0.115,0.158,-0.116
105,-9.39,-1.03,1.226,0.117,0.159,-0.115
106,-9.395,-1.03,1.245,0.122,0.159,-0.115
107,-9.395,-1.025,1.25,0.126,0.157,-0.115
108,-9.395,-1.02,1.259,0.128,0.154,-0.113
109,-9.39,-1.015,1.259,0.131,0.149,-0.111
110,-9.385,-1.015,1.269,0.134,0.142,-0.109
111,-9.38,-1.01,1.283,0.137,0.136,-0.107
112,-9.366,-1.006,1.307,0.14,0.125,-0.104
113,-9.352,-0.996,1.312,0.142,0.117,-0.1
114,-9.342,-0.991,1.317,0.146,0.109,-0.098
115,-9.337,-0.977,1.331,0.149,0.098,-0.095
116,-9.323,-0.977,1.336,0.151,0.091,-0.092
117,-9.309,-0.967,1.341,0.154,0.085,-0.09
118,-9.28,-0.972,1.346,0.156,0.08,-0.088
119,-9.266,-0.977,1.35,0.158,0.079,-0.087
120,-9.242,-0.982,1.374,0.158,0.08,-0.085
121,-9.227,-0.986,1.374,0.157,0.082,-0.083
122,-9.213,-0.977,1.365,0.157,0.086,-0.083
123,-9.189,-0.972,1.365,0.156,0.093,-0.082
124,-9.17,-0.972,1.369,0.154,0.1,-0.081
125,-9.16,-0.972,1.365,0.153,0.108,-0.081
126,-9.16,-0.967,1.365,0.151,0.121,-0.08
127,-9.16,-0.962,1.374,0.149,0.13,-0.08
128,-9.155,-0.967,1.379,0.147,0.139,-0.08
129,-9.155,-0.977,1.374,0.145,0.15,-0.079
130,-9.16,-0.977,1.365,0.142,0.159,-0.08
131,-9.17,-0.977,1.365,0.139,0.167,-0.08
132,-9.179,-0.977,1.346,0.135,0.177,-0.08
133,-9.203,-0.977,1.336,0.131,0.183,-0.079
134,-9.227,-0.977,1.331,0.126,0.188,-0.077
135,-9.242,-0.977,1.322,0.122,0.19,-0.074
136,-9.266,-0.977,1.326,0.117,0.192,-0.072
137,-9.285,-0.977,1.317,0.112,0.191,-0.068
138,-9.309,-0.986,1.312,0.109,0.189,-0.065
139,-9.323,-0.991,1.293,0.106,0.186,-0.061
140,-9.347,-0.996,1.269,0.101,0.181,-0.056
141,-9.366,-1.006,1.25,0.098,0.177,-0.051
142,-9.376,-1.015,1.216,0.096,0.174,-0.047
143,-9.404,-1.02,1.211,0.093,0.169,-0.041
144,-9.419,-1.03,1.197,0.09,0.166,-0.036
145,-9.433,-1.03,1.188,0.088,0.163,-0.031
146,-9.462,-1.034,1.183,0.086,0.16,-0.023
147,-9.476,-1.03,1.178,0.084,0.159,-0.019
148,-9.495,-1.02,1.168,0.082,0.158,-0.013
149,-9.543,-1.01,1.14,0.075,0.159,0.009
150,-9.553,-1.01,1.125,0.074,0.16,0.012
151,-9.572,-1.01,1.106,0.072,0.161,0.017
152,-9.577,-1.01,1.101,0.07,0.161,0.021
153,-9.577,-1.01,1.106,0.067,0.161,0.024
154,-9.577,-1.006,1.106,0.064,0.16,0.028
155,-9.582,-0.996,1.111,0.061,0.159,0.03
156,-9.577,-0.991,1.116,0.058,0.156,0.033
157,-9.572,-0.986,1.12,0.055,0.151,0.035
158,-9.562,-0.982,1.125,0.052,0.147,0.036
159,-9.553,-0.977,1.135,0.049,0.142,0.038
160,-9.534,-0.977,1.14,0.044,0.135,0.039
161,-9.524,-0.977,1.144,0.041,0.129,0.04
162,-9.5,-0.977,1.14,0.038,0.124,0.04
163,-9.486,-0.958,1.13,0.033,0.117,0.04
164,-9.467,-0.943,1.135,0.029,0.113,0.04
165,-9.448,-0.934,1.125,0.025,0.11,0.039
166,-9.414,-0.934,1.13,0.019,0.108,0.037
167,-9.395,-0.924,1.135,0.014,0.107,0.037
168,-9.376,-0.915,1.13,0.011,0.108,0.036
169,-9.352,-0.91,1.125,0.007,0.111,0.035
170,-9.333,-0.905,1.116,0.004,0.115,0.033
171,-9.318,-0.905,1.111,0.001,0.119,0.032
172,-9.299,-0.895,1.111,-0.001,0.126,0.029
173,-9.285,-0.895,1.111,-0.003,0.133,0.027
174,-9.28,-0.905,1.097,-0.005,0.139,0.025
175,-9.285,-0.919,1.077,-0.007,0.15,0.021
176,-9.285,-0.929,1.058,-0.008,0.159,0.018
177,-9.29,-0.934,1.015,-0.011,0.172,0.013
178,-9.309,-0.943,0.996,-0.013,0.183,0.01
179,-9.323,-0.953,0.977,-0.016,0.194,0.007
180,-9.357,-0.967,0.967,-0.019,0.209,0.004
181,-9.371,-0.972,0.953,-0.022,0.22,0.002
182,-9.4,-0.982,0.939,-0.025,0.229,0.001
183,-9.443,-1.001,0.919,-0.028,0.24,0.001
184,-9.476,-1.015,0.91,-0.03,0.245,0.001
185,-9.5,-1.025,0.9,-0.031,0.247,0.003
186,-9.534,-1.025,0.891,-0.032,0.247,0.007
187,-9.562,-1.03,0.891,-0.033,0.243,0.01
188,-9.582,-1.03,0.886,-0.032,0.237,0.014
189,-9.61,-1.03,0.876,-0.032,0.225,0.019
190,-9.625,-1.034,0.871,-0.032,0.213,0.024
191,-9.644,-1.039,0.871,-0.03,0.195,0.031
192,-9.644,-1.039,0.867,-0.029,0.179,0.035
193,-9.649,-1.034,0.862,-0.029,0.162,0.039
194,-9.634,-1.02,0.862,-0.028,0.139,0.045
195,-9.615,-1.006,0.857,-0.028,0.121,0.049
196,-9.591,-0.991,0.852,-0.028,0.103,0.052
197,-9.558,-0.972,0.852,-0.029,0.08,0.056
198,-9.524,-0.958,0.857,-0.03,0.063,0.06
199,-9.491,-0.943,0.862,-0.032,0.048,0.062
200,-9.433,-0.929,0.862,-0.035,0.031,0.063
201,-9.385,-0.915,0.857,-0.039,0.02,0.064
202,-9.337,-0.905,0.852,-0.042,0.01,0.063
203,-9.27,-0.891,0.848,-0.048,0.001,0.062
204,-9.213,-0.886,0.848,-0.053,-0.004,0.06
205,-9.136,-0.876,0.852,-0.061,-0.007,0.055
206,-9.103,-0.867,0.848,-0.067,-0.006,0.051
207,-9.06,-0.867,0.843,-0.075,-0.004,0.045
208,-9.012,-0.857,0.838,-0.087,0.003,0.037
209,-8.973,-0.857,0.838,-0.097,0.009,0.031
210,-8.95,-0.852,0.828,-0.107,0.017,0.023
211,-8.921,-0.848,0.814,-0.122,0.032,0.014
212,-8.902,-0.852,0.795,-0.134,0.043,0.006
213,-8.887,-0.857,0.795,-0.146,0.054,-0.0
214,-8.882,-0.857,0.795,-0.163,0.07,-0.009
215,-8.882,-0.862,0.795,-0.175,0.081,-0.016
216,-8.878,-0.867,0.8,-0.191,0.094,-0.023
217,-8.878,-0.876,0.804,-0.203,0.102,-0.027
218,-8.882,-0.886,0.804,-0.213,0.108,-0.031
219,-8.897,-0.9,0.79,-0.225,0.113,-0.035
220,-8.911,-0.91,0.79,-0.234,0.115,-0.037
221,-8.93,-0.924,0.8,-0.242,0.114,-0.037
222,-8.945,-0.939,0.795,-0.251,0.111,-0.038
223,-8.959,-0.953,0.8,-0.257,0.107,-0.038
224,-8.978,-0.972,0.785,-0.264,0.098,-0.037
225,-8.997,-0.991,0.781,-0.269,0.091,-0.035
226,-9.074,-1.082,0.761,-0.284,0.059,-0.023
227,-9.093,-1.101,0.761,-0.286,0.05,-0.019
228,-9.098,-1.116,0.757,-0.289,0.044,-0.015
229,-9.108,-1.13,0.752,-0.29,0.037,-0.009
230,-9.117,-1.14,0.747,-0.29,0.033,-0.006
231,-9.131,-1.144,0.742,-0.291,0.03,-0.002
232,-9.146,-1.149,0.747,-0.291,0.025,0.003
233,-9.151,-1.144,0.742,-0.29,0.022,0.008
234,-9.155,-1.149,0.742,-0.288,0.018,0.012
235,-9.165,-1.14,0.752,-0.285,0.013,0.017
236,-9.175,-1.125,0.742,-0.283,0.009,0.021
237,-9.179,-1.116,0.742,-0.28,0.003,0.026
238,-9.189,-1.111,0.742,-0.277,-0.001,0.029
239,-9.194,-1.097,0.723,-0.275,-0.006,0.032
240,-9.208,-1.082,0.723,-0.273,-0.012,0.036
241,-9.218,-1.068,0.718,-0.272,-0.016,0.038
242,-9.222,-1.049,0.709,-0.271,-0.018,0.04
243,-9.237,-1.025,0.704,-0.271,-0.02,0.041
244,-9.251,-1.015,0.709,-0.273,-0.021,0.042
245,-9.27,-0.991,0.713,-0.275,-0.022,0.042
246,-9.29,-0.953,0.709,-0.28,-0.022,0.042
247,-9.294,-0.939,0.713,-0.285,-0.021,0.042
248,-9.313,-0.915,0.723,-0.292,-0.021,0.041
249,-9.318,-0.895,0.713,-0.298,-0.021,0.039
250,-9.323,-0.881,0.713,-0.305,-0.022,0.037
251,-9.318,-0.852,0.718,-0.314,-0.027,0.035
252,-9.313,-0.838,0.733,-0.321,-0.031,0.032
253,-9.299,-0.824,0.737,-0.327,-0.037,0.028
254,-9.285,-0.804,0.747,-0.337,-0.048,0.024
255,-9.256,-0.795,0.771,-0.344,-0.058,0.02
256,-9.218,-0.776,0.79,-0.353,-0.072,0.014
257,-9.194,-0.761,0.814,-0.359,-0.084,0.009
258,-9.155,-0.752,0.843,-0.365,-0.097,0.005
259,-9.103,-0.752,0.876,-0.373,-0.116,-0.001
260,-9.05,-0.747,0.891,-0.377,-0.129,-0.007
261,-8.997,-0.752,0.905,-0.381,-0.142,-0.012
262,-8.921,-0.761,0.939,-0.386,-0.157,-0.019
263,-8.859,-0.776,0.967,-0.388,-0.167,-0.024
264,-8.787,-0.785,0.986,-0.389,-0.177,-0.032
265,-8.734,-0.795,1.001,-0.389,-0.181,-0.039
266,-8.686,-0.809,1.02,-0.388,-0.183,-0.045
267,-8.619,-0.828,1.044,-0.384,-0.181,-0.053
268,-8.566,-0.843,1.068,-0.38,-0.176,-0.059
269,-8.528,-0.862,1.092,-0.375,-0.167,-0.065
270,-8.432,-0.967,1.178,-0.333,-0.086,-0.09
271,-8.447,-0.996,1.192,-0.322,-0.061,-0.094
272,-8.466,-1.02,1.202,-0.306,-0.022,-0.099
273,-8.495,-1.039,1.207,-0.293,0.01,-0.103
274,-8.552,-1.063,1.231,-0.276,0.055,-0.108
275,-8.619,-1.082,1.245,-0.263,0.091,-0.11
276,-8.691,-1.101,1.255,-0.25,0.127,-0.112
277,-8.787,-1.125,1.269,-0.234,0.177,-0.113
278,-8.868,-1.149,1.283,-0.221,0.212,-0.113
279,-8.969,-1.164,1.293,-0.208,0.247,-0.112
280,-9.103,-1.178,1.302,-0.191,0.29,-0.109
281,-9.199,-1.197,1.302,-0.178,0.318,-0.106
282,-9.337,-1.211,1.326,-0.159,0.351,-0.1
283,-9.443,-1.226,1.35,-0.145,0.371,-0.095
284,-9.538,-1.24,1.369,-0.129,0.387,-0.089
285,-9.663,-1.25,1.389,-0.108,0.402,-0.081
286,-9.759,-1.259,1.389,-0.092,0.407,-0.074
287,-9.831,-1.274,1.384,-0.074,0.41,-0.066
288,-9.926,-1.279,1.389,-0.05,0.408,-0.056
289,-9.984,-1.279,1.389,-0.032,0.401,-0.049
290,-10.056,-1.274,1.408,-0.006,0.388,-0.037
291,-10.089,-1.264,1.422,0.015,0.373,-0.029
292,-10.118,-1.259,1.432,0.036,0.355,-0.02
293,-10.132,-1.245,1.441,0.066,0.327,-0.009
294,-10.123,-1.24,1.446,0.089,0.303,-0.0
295,-10.094,-1.24,1.446,0.114,0.278,0.007
296,-10.051,-1.231,1.451,0.147,0.244,0.017
297,-10.003,-1.221,1.46,0.173,0.218,0.023
298,-9.955,-1.216,1.456,0.2,0.195,0.028
299,-9.878,-1.197,1.451,0.236,0.167,0.032
300,-9.816,-1.188,1.432,0.262,0.15,0.034
301,-9.754,-1.188,1.417,0.288,0.138,0.035
302,-9.677,-1.173,1.403,0.321,0.129,0.034
303,-9.615,-1.168,1.393,0.345,0.129,0.031
304,-9.558,-1.164,1.389,0.367,0.135,0.027
305,-9.5,-1.164,1.365,0.394,0.153,0.022
306,-9.467,-1.154,1.355,0.413,0.172,0.016
307,-9.438,-1.149,1.331,0.429,0.198,0.01
308,-9.438,-1.13,1.298,0.448,0.24,0.001
309,-9.452,-1.116,1.274,0.461,0.276,-0.005
310,-9.5,-1.101,1.255,0.475,0.328,-0.014
311,-9.548,-1.092,1.231,0.482,0.369,-0.02
312,-9.61,-1.077,1.211,0.488,0.411,-0.025
313,-9.711,-1.063,1.188,0.492,0.467,-0.03
314,-9.792,-1.049,1.178,0.493,0.507,-0.033
315,-9.883,-1.034,1.154,0.491,0.544,-0.034
316,-10.022,-1.015,1.13,0.485,0.588,-0.034
317,-10.132,-1.006,1.116,0.479,0.616,-0.033
318,-10.242,-0.996,1.106,0.469,0.64,-0.031
319,-10.396,-0.972,1.082,0.454,0.664,-0.026
320,-10.52,-0.958,1.068,0.441,0.675,-0.021
321,-10.63,-0.958,1.039,0.426,0.68,-0.016
322,-10.769,-0.939,1.02,0.406,0.677,-0.008
323,-10.87,-0.924,1.015,0.388,0.669,-0.001
324,-10.961,-0.919,1.015,0.372,0.655,0.005
325,-11.056,-0.9,1.01,0.35,0.628,0.014
326,-11.205,-0.891,1.025,0.283,0.485,0.034
327,-11.205,-0.891,1.025,0.266,0.432,0.036
328,-11.186,-0.895,1.034,0.254,0.392,0.035
329,-11.152,-0.895,1.053,0.244,0.354,0.033
330,-11.09,-0.9,1.077,0.232,0.306,0.028
331,-11.023,-0.905,1.101,0.225,0.273,0.023
332,-10.961,-0.915,1.116,0.219,0.244,0.016
333,-10.86,-0.919,1.154,0.213,0.211,0.006
334,-10.769,-0.919,1.173,0.21,0.19,-0.003
335,-10.678,-0.924,1.192,0.209,0.174,-0.013
336,-10.549,-0.915,1.231,0.211,0.159,-0.027
337,-10.453,-0.91,1.25,0.213,0.151,-0.038
338,-10.348,-0.905,1.264,0.216,0.145,-0.049
339,-10.204,-0.91,1.288,0.223,0.142,-0.064
340,-10.099,-0.91,1.298,0.23,0.141,-0.076
341,-9.96,-0.91,1.317,0.24,0.143,-0.091
342,-9.859,-0.91,1.326,0.248,0.145,-0.102
343,-9.768,-0.91,1.336,0.257,0.148,-0.112
344,-9.653,-0.915,1.36,0.268,0.155,-0.126
345,-9.567,-0.919,1.36,0.276,0.161,-0.137
346,-9.491,-0.924,1.341,0.283,0.167,-0.146
347,-9.409,-0.924,1.331,0.292,0.18,-0.158
348,-9.352,-0.924,1.312,0.297,0.19,-0.167
349,-9.313,-0.934,1.288,0.301,0.203,-0.174
350,-9.27,-0.934,1.255,0.305,0.222,-0.183
351,-9.242,-0.948,1.235,0.308,0.237,-0.188
352,-9.232,-0.948,1.216,0.31,0.254,-0.193
353,-9.213,-0.953,1.202,0.31,0.277,-0.198
354,-9.213,-0.962,1.207,0.311,0.293,-0.2
355,-9.218,-0.967,1.202,0.311,0.314,-0.201
356,-9.218,-0.967,1.192,0.312,0.328,-0.2
357,-9.232,-0.972,1.183,0.311,0.339,-0.199
358,-9.246,-0.982,1.178,0.313,0.348,-0.195
359,-9.256,-0.986,1.197,0.315,0.351,-0.193
360,-9.266,-0.991,1.192,0.317,0.35,-0.189
361,-9.285,-1.006,1.197,0.32,0.343,-0.185
362,-9.294,-1.006,1.197,0.323,0.333,-0.181
363,-9.313,-1.006,1.197,0.327,0.321,-0.178
364,-9.318,-1.006,1.202,0.331,0.299,-0.173
365,-9.318,-1.001,1.216,0.334,0.28,-0.169
366,-9.313,-1.001,1.216,0.337,0.26,-0.167
367,-9.299,-1.006,1.226,0.342,0.23,-0.164
368,-9.275,-1.001,1.235,0.344,0.207,-0.162
369,-9.237,-1.001,1.24,0.348,0.176,-0.161
370,-9.208,-0.996,1.25,0.352,0.154,-0.162
371,-9.165,-0.982,1.25,0.355,0.131,-0.162
372,-9.103,-0.977,1.255,0.359,0.103,-0.163
373,-9.055,-0.967,1.259,0.363,0.084,-0.165
374,-9.007,-0.967,1.269,0.366,0.066,-0.168
375,-8.94,-0.958,1.264,0.37,0.045,-0.171
376,-8.892,-0.958,1.259,0.371,0.031,-0.175
377,-8.844,-0.958,1.255,0.373,0.02,-0.181
378,-8.768,-0.958,1.25,0.374,0.009,-0.189
379,-8.724,-0.953,1.245,0.373,0.003,-0.196
380,-8.677,-0.953,1.231,0.371,-0.002,-0.203
381,-8.624,-0.948,1.221,0.367,-0.004,-0.215
382,-8.576,-0.943,1.221,0.361,-0.004,-0.224
383,-8.519,-0.943,1.211,0.353,-0.003,-0.236
384,-8.49,-0.939,1.207,0.345,-0.0,-0.245
385,-8.452,-0.929,1.188,0.337,0.002,-0.254
386,-8.399,-0.929,1.178,0.324,0.004,-0.265
387,-8.365,-0.929,1.183,0.313,0.004,-0.272
388,-8.332,-0.934,1.173,0.303,0.003,-0.28
389,-8.289,-0.924,1.168,0.289,-0.001,-0.288
390,-8.116,-0.929,1.164,0.249,-0.042,-0.308
391,-8.068,-0.943,1.178,0.24,-0.061,-0.313
392,-8.025,-0.953,1.178,0.234,-0.077,-0.316
393,-7.982,-0.972,1.197,0.229,-0.094,-0.319
394,-7.92,-1.001,1.197,0.224,-0.116,-0.325
395,-7.872,-1.02,1.192,0.222,-0.132,-0.328
396,-7.805,-1.049,1.183,0.221,-0.153,-0.334
397,-7.752,-1.073,1.173,0.222,-0.167,-0.339
398,-7.695,-1.092,1.168,0.224,-0.179,-0.344
399,-7.628,-1.12,1.164,0.23,-0.191,-0.351
400,-7.585,-1.14,1.173,0.236,-0.197,-0.357
401,-7.542,-1.168,1.178,0.243,-0.202,-0.363
402,-7.484,-1.202,1.192,0.255,-0.204,-0.372
403,-7.451,-1.221,1.192,0.265,-0.203,-0.379
404,-7.412,-1.255,1.197,0.282,-0.198,-0.388
405,-7.398,-1.274,1.192,0.295,-0.192,-0.396
406,-7.389,-1.298,1.192,0.309,-0.183,-0.403
407,-7.374,-1.326,1.183,0.328,-0.17,-0.413
408,-7.374,-1.346,1.164,0.343,-0.157,-0.42
409,-7.384,-1.365,1.149,0.357,-0.143,-0.428
410,-7.412,-1.393,1.135,0.375,-0.124,-0.437
411,-7.441,-1.408,1.12,0.387,-0.109,-0.444
412,-7.489,-1.417,1.101,0.403,-0.088,-0.451
413,-7.532,-1.432,1.068,0.413,-0.072,-0.457
414,-7.594,-1.451,1.044,0.422,-0.057,-0.461
415,-7.681,-1.48,1.015,0.431,-0.037,-0.465
416,-7.762,-1.489,0.986,0.437,-0.022,-0.467
417,-7.848,-1.513,0.967,0.442,-0.008,-0.469
418,-7.968,-1.528,0.929,0.445,0.011,-0.469
419,-8.064,-1.542,0.9,0.446,0.024,-0.468
420,-8.159,-1.551,0.871,0.446,0.036,-0.466
421,-8.298,-1.575,0.848,0.444,0.051,-0.462
422,-8.408,-1.595,0.828,0.441,0.06,-0.458
423,-8.547,-1.618,0.804,0.437,0.07,-0.451
424,-8.653,-1.623,0.79,0.433,0.074,-0.446
425,-8.753,-1.633,0.771,0.43,0.076,-0.44
426,-8.882,-1.642,0.752,0.424,0.074,-0.43
427,-8.978,-1.647,0.733,0.42,0.069,-0.421
428,-9.06,-1.652,0.728,0.418,0.06,-0.413
429,-9.151,-1.662,0.723,0.415,0.043,-0.402
430,-9.218,-1.671,0.704,0.414,0.025,-0.393
431,-9.27,-1.671,0.699,0.414,0.005,-0.386
432,-9.328,-1.662,0.704,0.416,-0.028,-0.376
433,-9.357,-1.657,0.694,0.417,-0.057,-0.368
434,-9.376,-1.642,0.685,0.422,-0.099,-0.359
435,-9.361,-1.638,0.68,0.427,-0.133,-0.354
436,-9.342,-1.633,0.675,0.432,-0.171,-0.349
437,-9.299,-1.628,0.656,0.439,-0.221,-0.345
438,-9.261,-1.618,0.651,0.445,-0.259,-0.343
439,-9.203,-1.609,0.646,0.451,-0.294,-0.343
440,-9.131,-1.609,0.618,0.456,-0.337,-0.345
441,-9.093,-1.609,0.603,0.459,-0.364,-0.347
442,-8.94,-1.628,0.488,0.459,-0.396,-0.373
443,-8.935,-1.628,0.46,0.455,-0.381,-0.381
444,-8.935,-1.642,0.431,0.449,-0.358,-0.387
445,-8.954,-1.652,0.388,0.441,-0.317,-0.396
446,-8.993,-1.657,0.364,0.433,-0.28,-0.4
447,-9.06,-1.662,0.316,0.422,-0.226,-0.405
448,-9.117,-1.662,0.297,0.416,-0.185,-0.406
449,-9.179,-1.666,0.273,0.41,-0.144,-0.406
450,-9.266,-1.671,0.235,0.403,-0.094,-0.402
451,-9.342,-1.671,0.22,0.399,-0.064,-0.397
452,-9.419,-1.666,0.206,0.398,-0.039,-0.391
453,-9.515,-1.652,0.196,0.397,-0.019,-0.379
454,-9.591,-1.647,0.182,0.398,-0.014,-0.369
455,-9.682,-1.642,0.182,0.401,-0.022,-0.354
456,-9.735,-1.642,0.182,0.406,-0.039,-0.343
457,-9.768,-1.638,0.153,0.41,-0.064,-0.331
458,-9.797,-1.633,0.129,0.419,-0.106,-0.315
459,-9.811,-1.623,0.124,0.426,-0.144,-0.305
460,-9.811,-1.618,0.115,0.433,-0.188,-0.295
461,-9.797,-1.609,0.12,0.442,-0.253,-0.283
462,-9.768,-1.599,0.124,0.449,-0.304,-0.275
463,-9.716,-1.585,0.096,0.459,-0.372,-0.267
464,-9.668,-1.58,0.096,0.465,-0.42,-0.263
465,-9.62,-1.571,0.115,0.472,-0.466,-0.259
466,-9.553,-1.566,0.12,0.481,-0.522,-0.259
467,-9.5,-1.571,0.124,0.487,-0.558,-0.26
468,-9.452,-1.575,0.134,0.491,-0.585,-0.262
469,-9.4,-1.58,0.124,0.497,-0.609,-0.267
470,-9.38,-1.59,0.12,0.5,-0.615,-0.272
471,-9.361,-1.609,0.124,0.501,-0.607,-0.281
472,-9.366,-1.628,0.12,0.498,-0.589,-0.288
473,-9.38,-1.638,0.105,0.495,-0.56,-0.295
474,-9.438,-1.657,0.091,0.487,-0.506,-0.304
475,-9.495,-1.671,0.067,0.48,-0.456,-0.311
476,-9.572,-1.7,0.048,0.47,-0.4,-0.316
477,-9.697,-1.729,0.034,0.454,-0.316,-0.321
478,-9.811,-1.748,0.019,0.442,-0.248,-0.323
479,-9.998,-1.776,-0.005,0.423,-0.157,-0.322
480,-10.161,-1.8,-0.024,0.407,-0.089,-0.319
481,-10.348,-1.824,-0.057,0.391,-0.022,-0.314
482,-10.621,-1.848,-0.11,0.368,0.063,-0.305
483,-10.831,-1.872,-0.148,0.35,0.12,-0.295
484,-11.052,-1.887,-0.187,0.331,0.173,-0.284
485,-12.115,-1.973,-0.383,0.242,0.325,-0.208
486,-12.33,-1.978,-0.426,0.225,0.336,-0.188
487,-12.594,-1.968,-0.464,0.201,0.337,-0.159
488,-12.771,-1.954,-0.479,0.184,0.326,-0.134
489,-12.957,-1.944,-0.575,0.161,0.299,-0.101
490,-13.058,-1.92,-0.618,0.146,0.27,-0.076
491,-13.135,-1.911,-0.622,0.131,0.23,-0.051
492,-13.187,-1.887,-0.618,0.114,0.157,-0.02
493,-13.197,-1.858,-0.622,0.104,0.089,0.001
494,-13.173,-1.824,-0.618,0.095,0.01,0.021
495,-13.091,-1.776,-0.627,0.085,-0.108,0.043
496,-13.005,-1.743,-0.618,0.079,-0.205,0.057
497,-12.89,-1.705,-0.608,0.074,-0.307,0.068
498,-12.684,-1.642,-0.594,0.067,-0.445,0.078
499,-12.503,-1.599,-0.565,0.061,-0.547,0.083
500,-12.234,-1.532,-0.546,0.051,-0.675,0.085
501,-12.019,-1.494,-0.517,0.042,-0.763,0.083
502,-11.775,-1.441,-0.503,0.03,-0.842,0.08
503,-11.444,-1.379,-0.469,0.012,-0.93,0.071
504,-11.195,-1.341,-0.441,-0.003,-0.982,0.062
505,-10.946,-1.302,-0.407,-0.021,-1.02,0.052
506,-10.625,-1.264,-0.35,-0.047,-1.049,0.037
507,-10.391,-1.231,-0.297,-0.068,-1.055,0.023
508,-10.08,-1.197,-0.244,-0.097,-1.043,0.004
509,-9.859,-1.178,-0.206,-0.121,-1.018,-0.011
510,-9.663,-1.159,-0.163,-0.145,-0.982,-0.026
511,-9.414,-1.135,-0.11,-0.179,-0.915,-0.047
512,-9.251,-1.125,-0.072,-0.204,-0.853,-0.063
513,-9.069,-1.116,-0.043,-0.24,-0.757,-0.084
514,-8.954,-1.111,-0.014,-0.267,-0.676,-0.098
515,-8.72,-1.192,0.081,-0.391,-0.259,-0.151
516,-8.734,-1.221,0.101,-0.417,-0.173,-0.158
517,-8.777,-1.25,0.115,-0.442,-0.092,-0.164
518,-8.854,-1.283,0.129,-0.475,0.004,-0.169
519,-8.94,-1.317,0.134,-0.498,0.067,-0.171
520,-9.069,-1.355,0.148,-0.527,0.137,-0.17
521,-9.17,-1.379,0.139,-0.547,0.178,-0.168
522,-9.28,-1.398,0.134,-0.567,0.21,-0.163
523,-9.419,-1.432,0.124,-0.591,0.239,-0.153
524,-9.51,-1.46,0.105,-0.607,0.251,-0.144
525,-9.606,-1.489,0.11,-0.622,0.254,-0.134
526,-9.706,-1.523,0.096,-0.641,0.246,-0.117
527,-9.764,-1.542,0.091,-0.653,0.229,-0.102
528,-9.84,-1.561,0.086,-0.667,0.195,-0.081
529,-9.864,-1.585,0.105,-0.676,0.161,-0.065
530,-9.874,-1.604,0.105,-0.684,0.122,-0.047
531,-9.859,-1.633,0.086,-0.69,0.063,-0.024
532,-9.831,-1.642,0.096,-0.693,0.016,-0.006
533,-9.787,-1.652,0.11,-0.693,-0.035,0.01
534,-9.701,-1.657,0.129,-0.69,-0.105,0.032
535,-9.61,-1.657,0.139,-0.685,-0.159,0.048
536,-9.481,-1.657,0.153,-0.676,-0.228,0.066
537,-9.371,-1.652,0.168,-0.667,-0.278,0.078
538,-9.251,-1.638,0.182,-0.657,-0.324,0.089
539,-9.079,-1.618,0.211,-0.642,-0.379,0.102
540,-8.94,-1.599,0.225,-0.63,-0.414,0.11
541,-8.792,-1.571,0.244,-0.618,-0.443,0.117
542,-8.595,-1.532,0.259,-0.604,-0.473,0.125
543,-8.452,-1.508,0.263,-0.593,-0.487,0.13
544,-8.25,-1.47,0.292,-0.581,-0.497,0.135
545,-8.112,-1.441,0.306,-0.574,-0.497,0.137
546,-7.968,-1.408,0.316,-0.569,-0.492,0.14
547,-7.781,-1.369,0.321,-0.565,-0.475,0.143
548,-7.642,-1.336,0.34,-0.564,-0.455,0.144
549,-7.527,-1.302,0.345,-0.565,-0.432,0.145
550,-7.374,-1.255,0.359,-0.57,-0.395,0.146
551,-7.274,-1.226,0.369,-0.575,-0.365,0.146
552,-7.183,-1.202,0.378,-0.583,-0.333,0.145
553,-7.077,-1.168,0.393,-0.597,-0.289,0.143
554,-7.025,-1.144,0.407,-0.609,-0.256,0.141
555,-6.967,-1.12,0.412,-0.628,-0.213,0.138
556,-6.929,-1.101,0.421,-0.645,-0.182,0.135
557,-6.91,-1.092,0.426,-0.664,-0.152,0.132
558,-6.905,-1.082,0.431,-0.692,-0.115,0.128
559,-6.91,-1.087,0.455,-0.714,-0.089,0.125
560,-6.924,-1.092,0.474,-0.738,-0.065,0.122
561,-7.063,-1.144,0.522,-0.86,0.023,0.115
562,-7.101,-1.168,0.532,-0.887,0.037,0.116
563,-7.163,-1.211,0.555,-0.923,0.053,0.118
564,-7.207,-1.245,0.584,-0.948,0.063,0.12
565,-7.245,-1.288,0.618,-0.973,0.071,0.124
566,-7.312,-1.341,0.642,-1.004,0.08,0.13
567,-7.369,-1.384,0.675,-1.026,0.086,0.135
568,-7.432,-1.441,0.685,-1.052,0.093,0.143
569,-7.475,-1.489,0.699,-1.07,0.098,0.15
570,-7.513,-1.532,0.713,-1.085,0.102,0.158
571,-7.566,-1.599,0.752,-1.102,0.108,0.171
572,-7.59,-1.642,0.761,-1.114,0.111,0.181
573,-7.618,-1.686,0.776,-1.122,0.114,0.193
574,-7.652,-1.738,0.814,-1.129,0.117,0.209
575,-7.666,-1.781,0.824,-1.132,0.118,0.223
576,-7.671,-1.815,0.838,-1.132,0.118,0.238
577,-7.671,-1.853,0.862,-1.127,0.115,0.259
578,-7.661,-1.872,0.881,-1.12,0.112,0.275
579,-7.652,-1.887,0.905,-1.112,0.106,0.292
580,-7.623,-1.906,0.934,-1.096,0.096,0.314
581,-7.604,-1.915,0.958,-1.081,0.087,0.331
582,-7.58,-1.92,0.977,-1.06,0.074,0.351
583,-7.566,-1.93,0.986,-1.044,0.065,0.366
584,-7.542,-1.93,1.001,-1.026,0.058,0.38
585,-7.532,-1.935,1.006,-1.003,0.053,0.397
586,-7.537,-1.939,0.996,-0.988,0.055,0.407
587,-7.551,-1.935,0.991,-0.975,0.064,0.417
588,-7.599,-1.944,0.986,-0.961,0.089,0.428
589,-7.657,-1.944,0.977,-0.953,0.118,0.434
590,-7.733,-1.949,0.972,-0.95,0.155,0.441
591,-7.867,-1.958,0.982,-0.95,0.22,0.449
592,-7.992,-1.978,0.972,-0.954,0.279,0.455
593,-8.135,-1.992,0.958,-0.961,0.347,0.462
594,-8.361,-2.016,0.939,-0.975,0.449,0.471
595,-8.538,-2.035,0.939,-0.987,0.532,0.479
596,-8.734,-2.054,0.939,-1.001,0.619,0.489
597,-9.031,-2.083,0.919,-1.021,0.737,0.504
598,-9.27,-2.102,0.895,-1.036,0.824,0.518
599,-9.596,-2.136,0.852,-1.055,0.935,0.538
600,-9.845,-2.16,0.833,-1.068,1.012,0.555
601,-10.099,-2.179,0.819,-1.08,1.079,0.572
602,-10.434,-2.184,0.814,-1.091,1.152,0.596
603,-10.659,-2.179,0.761,-1.095,1.191,0.616
604,-10.865,-2.174,0.737,-1.095,1.219,0.635
605,-11.1,-2.155,0.713,-1.09,1.229,0.663
606,-11.238,-2.14,0.694,-1.082,1.217,0.685
607,-11.344,-2.112,0.699,-1.068,1.185,0.706
608,-11.43,-2.049,0.699,-1.044,1.109,0.734
609,-11.435,-1.992,0.704,-1.021,1.029,0.753
610,-11.416,-1.92,0.718,-0.992,0.931,0.771
611,-11.325,-1.8,0.718,-0.948,0.775,0.792
612,-11.229,-1.705,0.728,-0.909,0.643,0.805
613,-11.037,-1.571,0.733,-0.854,0.454,0.817
614,-10.865,-1.46,0.723,-0.81,0.307,0.821
615,-10.664,-1.35,0.709,-0.766,0.161,0.822
616,-10.372,-1.202,0.699,-0.709,-0.026,0.816
617,-10.132,-1.097,0.685,-0.67,-0.155,0.808
618,-9.883,-0.996,0.68,-0.633,-0.271,0.794
619,-9.548,-0.867,0.68,-0.593,-0.398,0.77
620,-8.48,-0.484,0.599,-0.531,-0.532,0.642
621,-8.212,-0.393,0.584,-0.534,-0.477,0.593
622,-8.035,-0.326,0.575,-0.541,-0.409,0.556
623,-7.896,-0.273,0.575,-0.552,-0.32,0.518
624,-7.767,-0.23,0.551,-0.573,-0.174,0.468
625,-7.719,-0.215,0.551,-0.591,-0.048,0.43
626,-7.728,-0.206,0.555,-0.618,0.138,0.38
627,-7.786,-0.22,0.546,-0.639,0.285,0.344
628,-7.891,-0.249,0.551,-0.661,0.435,0.309
629,-8.092,-0.302,0.57,-0.69,0.634,0.265
630,-8.294,-0.359,0.57,-0.711,0.778,0.235
631,-8.547,-0.426,0.565,-0.731,0.914,0.206
632,-8.93,-0.522,0.555,-0.755,1.079,0.172
633,-9.256,-0.603,0.541,-0.772,1.186,0.15
634,-9.601,-0.68,0.546,-0.787,1.278,0.131
635,-10.075,-0.785,0.536,-0.803,1.372,0.112
636,-10.448,-0.852,0.584,-0.814,1.419,0.103
637,-10.822,-0.919,0.565,-0.822,1.445,0.098
638,-11.286,-1.01,0.469,-0.83,1.458,0.096
639,-11.631,-1.082,0.436,-0.833,1.452,0.099
640,-12.048,-1.164,0.393,-0.835,1.42,0.108
641,-12.34,-1.211,0.378,-0.835,1.376,0.118
642,-12.598,-1.264,0.35,-0.833,1.317,0.129
643,-12.9,-1.322,0.311,-0.83,1.217,0.146
644,-13.087,-1.35,0.297,-0.827,1.129,0.16
645,-13.23,-1.374,0.268,-0.822,1.031,0.176
646,-13.374,-1.403,0.225,-0.81,0.891,0.197
647,-13.441,-1.413,0.239,-0.797,0.778,0.213
648,-13.475,-1.413,0.254,-0.78,0.659,0.228
649,-13.441,-1.422,0.273,-0.753,0.495,0.248
650,-13.384,-1.427,0.302,-0.73,0.37,0.262
651,-13.293,-1.427,0.33,-0.705,0.248,0.274
652,-13.125,-1.427,0.369,-0.67,0.092,0.288
653,-12.972,-1.422,0.402,-0.643,-0.017,0.296
654,-12.723,-1.422,0.45,-0.607,-0.149,0.303
655,-12.522,-1.417,0.498,-0.579,-0.236,0.306
656,-12.301,-1.403,0.546,-0.553,-0.31,0.307
657,-11.99,-1.393,0.618,-0.517,-0.39,0.307
658,-11.746,-1.384,0.666,-0.491,-0.435,0.304
659,-11.497,-1.355,0.723,-0.466,-0.468,0.3
660,-11.152,-1.336,0.79,-0.434,-0.492,0.293
661,-10.898,-1.312,0.838,-0.41,-0.496,0.287
662,-10.563,-1.279,0.886,-0.381,-0.481,0.276
663,-10.324,-1.255,0.915,-0.359,-0.455,0.267
664,-9.438,-1.188,0.996,-0.276,-0.231,0.219
665,-9.256,-1.173,1.015,-0.253,-0.137,0.202
666,-9.141,-1.164,1.034,-0.236,-0.064,0.189
667,-9.036,-1.149,1.034,-0.216,0.034,0.17
668,-8.988,-1.144,1.049,-0.202,0.107,0.155
669,-8.969,-1.125,1.034,-0.19,0.177,0.141
670,-8.973,-1.097,1.034,-0.176,0.266,0.125
671,-9.007,-1.073,1.03,-0.166,0.329,0.113
672,-9.06,-1.049,1.01,-0.159,0.385,0.103
673,-9.146,-1.02,0.986,-0.153,0.449,0.091
674,-9.227,-1.01,0.962,-0.152,0.489,0.085
675,-9.318,-0.986,0.934,-0.153,0.52,0.078
676,-9.448,-0.972,0.9,-0.159,0.549,0.073
677,-9.538,-0.953,0.871,-0.167,0.561,0.07
678,-9.668,-0.939,0.828,-0.18,0.562,0.07
679,-9.749,-0.924,0.804,-0.191,0.553,0.072
680,-9.816,-0.91,0.79,-0.204,0.535,0.075
681,-9.902,-0.891,0.766,-0.222,0.498,0.081
682,-9.95,-0.891,0.747,-0.235,0.463,0.087
683,-9.984,-0.891,0.733,-0.248,0.421,0.093
684,-10.003,-0.915,0.713,-0.266,0.357,0.101
685,-9.989,-0.929,0.69,-0.278,0.305,0.106
686,-9.96,-0.943,0.69,-0.289,0.252,0.11
687,-9.902,-0.958,0.699,-0.301,0.179,0.114
688,-9.85,-0.967,0.709,-0.309,0.124,0.115
689,-9.773,-0.982,0.718,-0.315,0.071,0.116
690,-9.649,-0.986,0.723,-0.321,0.003,0.114
691,-9.548,-0.996,0.742,-0.323,-0.045,0.112
692,-9.404,-1.006,0.766,-0.324,-0.101,0.108
693,-9.285,-1.01,0.776,-0.323,-0.139,0.104
694,-9.16,-1.01,0.79,-0.321,-0.171,0.099
695,-8.988,-1.01,0.809,-0.317,-0.205,0.091
696,-8.854,-1.01,0.819,-0.313,-0.225,0.086
697,-8.729,-0.996,0.824,-0.309,-0.239,0.08
698,-8.557,-0.986,0.828,-0.304,-0.25,0.072
699,-8.428,-0.977,0.838,-0.3,-0.254,0.064
700,-8.265,-0.958,0.848,-0.296,-0.251,0.055
701,-8.145,-0.948,0.852,-0.294,-0.246,0.048
702,-8.035,-0.943,0.871,-0.292,-0.239,0.039
703,-7.901,-0.934,0.891,-0.29,-0.226,0.027
704,-7.81,-0.924,0.9,-0.29,-0.216,0.017
705,-7.728,-0.919,0.919,-0.289,-0.205,0.007
706,-7.633,-0.91,0.924,-0.29,-0.189,-0.008
707,-7.575,-0.9,0.924,-0.292,-0.176,-0.019
708,-7.508,-0.886,0.905,-0.295,-0.159,-0.034
709,-7.465,-0.876,0.905,-0.299,-0.146,-0.045
710,-7.436,-0.857,0.91,-0.304,-0.133,-0.057
711,-7.403,-0.838,0.91,-0.313,-0.117,-0.072
712,-7.389,-0.833,0.924,-0.322,-0.104,-0.082
713,-7.379,-0.828,0.919,-0.331,-0.093,-0.092
714,-7.379,-0.824,0.905,-0.345,-0.078,-0.104
715,-7.379,-0.819,0.895,-0.357,-0.067,-0.112
716,-7.441,-0.819,0.852,-0.42,-0.029,-0.142
717,-7.465,-0.819,0.862,-0.435,-0.026,-0.147
718,-7.489,-0.828,0.857,-0.453,-0.026,-0.153
719,-7.513,-0.833,0.862,-0.467,-0.029,-0.157
720,-7.532,-0.848,0.867,-0.48,-0.035,-0.162
721,-7.556,-0.871,0.891,-0.498,-0.048,-0.167
722,-7.57,-0.895,0.9,-0.512,-0.06,-0.172
723,-7.575,-0.924,0.895,-0.529,-0.079,-0.178
724,-7.58,-0.943,0.905,-0.543,-0.094,-0.183
725,-7.58,-0.967,0.91,-0.555,-0.11,-0.188
726,-7.57,-0.986,0.915,-0.571,-0.131,-0.195
727,-7.566,-1.006,0.91,-0.582,-0.145,-0.2
728,-7.556,-1.044,0.895,-0.596,-0.159,-0.206
729,-7.561,-1.053,0.881,-0.604,-0.164,-0.209
730,-7.566,-1.073,0.862,-0.611,-0.165,-0.213
731,-7.58,-1.092,0.838,-0.618,-0.157,-0.216
732,-7.604,-1.097,0.814,-0.62,-0.145,-0.217
733,-7.638,-1.087,0.781,-0.621,-0.129,-0.217
734,-7.685,-1.077,0.757,-0.619,-0.102,-0.215
735,-7.714,-1.068,0.742,-0.615,-0.08,-0.213
736,-7.767,-1.039,0.737,-0.608,-0.051,-0.209
737,-7.8,-1.01,0.723,-0.602,-0.033,-0.205
738,-7.824,-0.982,0.709,-0.593,-0.018,-0.202
739,-7.863,-0.948,0.694,-0.581,-0.007,-0.199
740,-7.877,-0.924,0.685,-0.573,-0.007,-0.197
741,-7.891,-0.9,0.666,-0.561,-0.018,-0.197
742,-7.901,-0.886,0.656,-0.554,-0.034,-0.199
743,-7.91,-0.867,0.632,-0.548,-0.056,-0.203
744,-7.915,-0.848,0.608,-0.544,-0.095,-0.21
745,-7.925,-0.833,0.594,-0.543,-0.127,-0.218
746,-7.939,-0.833,0.551,-0.547,-0.173,-0.231
747,-7.944,-0.828,0.536,-0.553,-0.207,-0.243
748,-7.963,-0.819,0.508,-0.563,-0.238,-0.255
749,-7.992,-0.824,0.479,-0.58,-0.274,-0.273
750,-8.193,-0.891,0.431,-0.668,-0.308,-0.337
751,-8.289,-0.919,0.412,-0.7,-0.289,-0.356
752,-8.384,-0.953,0.383,-0.724,-0.266,-0.37
753,-8.485,-0.986,0.359,-0.747,-0.236,-0.384
754,-8.643,-1.02,0.34,-0.774,-0.187,-0.402
755,-8.782,-1.044,0.326,-0.792,-0.143,-0.414
756,-8.978,-1.068,0.292,-0.812,-0.08,-0.427
757,-9.141,-1.073,0.259,-0.824,-0.029,-0.434
758,-9.313,-1.077,0.225,-0.832,0.022,-0.439
759,-9.567,-1.068,0.187,-0.84,0.086,-0.442
760,-9.759,-1.044,0.168,-0.842,0.127,-0.441
761,-9.946,-1.001,0.163,-0.842,0.16,-0.439
762,-10.171,-0.948,0.077,-0.839,0.191,-0.432
763,-10.324,-0.895,0.019,-0.833,0.204,-0.424
764,-10.506,-0.824,-0.043,-0.821,0.203,-0.41
765,-10.625,-0.766,-0.043,-0.81,0.184,-0.398
766,-10.716,-0.709,-0.062,-0.798,0.149,-0.386
767,-10.807,-0.642,-0.086,-0.78,0.078,-0.369
768,-10.841,-0.594,-0.11,-0.765,0.008,-0.357
769,-10.851,-0.522,-0.11,-0.746,-0.106,-0.341
770,-10.822,-0.484,-0.158,-0.732,-0.205,-0.331
771,-10.769,-0.445,-0.206,-0.719,-0.307,-0.322
772,-10.673,-0.412,-0.215,-0.702,-0.451,-0.313
773,-10.582,-0.393,-0.211,-0.689,-0.562,-0.31
774,-10.439,-0.378,-0.206,-0.676,-0.706,-0.31
775,-10.305,-0.378,-0.196,-0.666,-0.808,-0.313
776,-10.171,-0.383,-0.182,-0.657,-0.902,-0.319
777,-9.984,-0.393,-0.139,-0.646,-1.01,-0.332
778,-9.404,-0.517,0.014,-0.611,-1.182,-0.405
779,-9.27,-0.579,0.067,-0.602,-1.171,-0.434
780,-9.194,-0.632,0.11,-0.595,-1.141,-0.458
781,-9.127,-0.709,0.158,-0.586,-1.075,-0.49
782,-9.103,-0.766,0.187,-0.58,-1.006,-0.515
783,-9.112,-0.814,0.206,-0.576,-0.923,-0.539
784,-9.175,-0.881,0.225,-0.57,-0.792,-0.568
785,-9.251,-0.939,0.239,-0.566,-0.683,-0.586
786,-9.39,-1.01,0.254,-0.561,-0.527,-0.608
787,-9.534,-1.058,0.263,-0.557,-0.406,-0.62
788,-9.706,-1.101,0.263,-0.553,-0.285,-0.628
789,-9.965,-1.154,0.268,-0.545,-0.129,-0.633
790,-10.171,-1.183,0.249,-0.538,-0.019,-0.633
791,-10.4,-1.207,0.23,-0.53,0.082,-0.628
792,-10.712,-1.231,0.206,-0.517,0.198,-0.615
793,-10.946,-1.255,0.187,-0.504,0.269,-0.603
794,-11.258,-1.279,0.163,-0.487,0.336,-0.582
795,-11.487,-1.293,0.139,-0.474,0.363,-0.563
796,-11.708,-1.307,0.105,-0.459,0.373,-0.543
797,-11.985,-1.317,0.077,-0.438,0.357,-0.515
798,-12.163,-1.331,0.057,-0.423,0.324,-0.494
799,-12.321,-1.336,0.038,-0.409,0.274,-0.472
800,-12.498,-1.341,0.0,-0.392,0.185,-0.444
801,-12.598,-1.346,-0.029,-0.381,0.105,-0.424
802,-12.684,-1.346,-0.057,-0.368,-0.018,-0.398
803,-12.708,-1.346,-0.057,-0.36,-0.117,-0.38
804,-12.694,-1.341,-0.057,-0.353,-0.221,-0.363
805,-12.627,-1.341,-0.053,-0.346,-0.361,-0.341
806,-12.55,-1.341,-0.024,-0.341,-0.465,-0.326
807,-12.397,-1.346,0.019,-0.335,-0.599,-0.307
808,-11.612,-1.413,0.201,-0.304,-0.928,-0.26
809,-11.334,-1.446,0.273,-0.288,-0.982,-0.251
810,-11.123,-1.47,0.311,-0.275,-1.005,-0.245
811,-10.913,-1.489,0.345,-0.26,-1.013,-0.24
812,-10.64,-1.523,0.397,-0.237,-1.0,-0.236
813,-10.453,-1.547,0.426,-0.216,-0.971,-0.234
814,-10.214,-1.575,0.455,-0.187,-0.914,-0.232
815,-10.051,-1.585,0.474,-0.164,-0.856,-0.23
816,-9.893,-1.595,0.484,-0.138,-0.787,-0.228
817,-9.716,-1.585,0.474,-0.101,-0.681,-0.225
818,-9.601,-1.571,0.46,-0.071,-0.593,-0.222
819,-9.524,-1.537,0.436,-0.04,-0.5,-0.215
820,-9.438,-1.47,0.378,0.001,-0.371,-0.203
821,-9.414,-1.465,0.359,0.034,-0.271,-0.192
822,-9.409,-1.398,0.316,0.081,-0.142,-0.177
823,-9.428,-1.326,0.287,0.118,-0.052,-0.161
824,-9.467,-1.264,0.263,0.154,0.033,-0.143
825,-9.543,-1.197,0.201,0.196,0.131,-0.118
826,-9.615,-1.14,0.139,0.222,0.192,-0.101
827,-9.697,-1.068,0.062,0.241,0.243,-0.083
828,-9.807,-0.972,-0.038,0.259,0.292,-0.06
829,-9.902,-0.9,-0.105,0.267,0.315,-0.043
830,-10.032,-0.814,-0.187,0.27,0.325,-0.023
831,-10.127,-0.752,-0.23,0.269,0.316,-0.008
832,-10.218,-0.694,-0.268,0.266,0.295,0.004
833,-10.319,-0.642,-0.33,0.257,0.247,0.016
834,-10.386,-0.599,-0.354,0.248,0.199,0.021
835,-10.439,-0.57,-0.397,0.236,0.142,0.023
836,-10.487,-0.517,-0.45,0.215,0.056,0.021
837,-10.511,-0.484,-0.484,0.195,-0.014,0.016
838,-10.52,-0.455,-0.517,0.171,-0.085,0.009
839,-10.501,-0.402,-0.541,0.134,-0.177,-0.003
840,-10.477,-0.369,-0.551,0.102,-0.243,-0.013
841,-10.424,-0.321,-0.541,0.055,-0.323,-0.025
842,-10.372,-0.278,-0.536,0.016,-0.375,-0.034
843,-10.017,-0.168,-0.46,-0.187,-0.514,-0.07
844,-9.926,-0.153,-0.441,-0.233,-0.52,-0.076
845,-9.835,-0.139,-0.421,-0.279,-0.518,-0.081
846,-9.706,-0.134,-0.402,-0.343,-0.503,-0.087
847,-9.606,-0.124,-0.378,-0.391,-0.483,-0.09
848,-9.486,-0.12,-0.345,-0.452,-0.448,-0.092
849,-9.395,-0.115,-0.311,-0.495,-0.418,-0.093
850,-9.318,-0.115,-0.283,-0.534,-0.384,-0.093
851,-9.213,-0.115,-0.235,-0.58,-0.339,-0.092
852,-9.141,-0.124,-0.196,-0.609,-0.307,-0.091
853,-9.045,-0.148,-0.168,-0.642,-0.268,-0.093
854,-8.983,-0.172,-0.134,-0.663,-0.242,-0.097
855,-8.921,-0.206,-0.101,-0.679,-0.222,-0.104
856,-8.839,-0.259,-0.081,-0.695,-0.203,-0.118
857,-8.782,-0.297,-0.077,-0.702,-0.195,-0.133
858,-8.71,-0.33,-0.053,-0.707,-0.195,-0.159
859,-8.696,-0.158,-0.034,-0.706,-0.203,-0.175
860,-8.686,-0.091,-0.024,-0.699,-0.218,-0.178
861,-8.643,-0.168,-0.053,-0.698,-0.242,-0.18
862,-8.595,-0.259,-0.072,-0.704,-0.263,-0.187
863,-8.538,-0.359,-0.12,-0.715,-0.292,-0.202
864,-8.485,-0.421,-0.144,-0.724,-0.312,-0.216
865,-8.442,-0.479,-0.139,-0.732,-0.337,-0.236
866,-8.418,-0.508,-0.105,-0.735,-0.355,-0.251
867,-8.399,-0.503,-0.072,-0.733,-0.373,-0.265
868,-8.38,-0.469,0.005,-0.727,-0.393,-0.276
869,-8.37,-0.46,0.038,-0.719,-0.405,-0.278
870,-8.284,-0.622,0.086,-0.669,-0.393,-0.258
871,-8.255,-0.69,0.101,-0.659,-0.378,-0.252
872,-8.217,-0.785,0.101,-0.643,-0.354,-0.247
873,-8.193,-0.848,0.129,-0.629,-0.334,-0.245
874,-8.179,-0.91,0.153,-0.613,-0.315,-0.245
875,-8.155,-0.986,0.196,-0.586,-0.291,-0.248
876,-8.145,-1.01,0.249,-0.56,-0.275,-0.252
877,-8.145,-0.982,0.306,-0.533,-0.264,-0.253
878,-8.155,-0.986,0.34,-0.494,-0.253,-0.248
879,-8.155,-1.015,0.354,-0.462,-0.247,-0.243
880,-8.14,-1.073,0.378,-0.418,-0.241,-0.239
881,-8.126,-1.125,0.402,-0.386,-0.238,-0.239
882,-8.116,-1.178,0.421,-0.353,-0.238,-0.24
883,-8.112,-1.216,0.426,-0.311,-0.239,-0.244
884,-8.107,-1.231,0.431,-0.279,-0.242,-0.247
885,-8.112,-1.25,0.45,-0.236,-0.245,-0.25
886,-8.112,-1.269,0.464,-0.205,-0.249,-0.251
887,-8.116,-1.293,0.469,-0.173,-0.252,-0.252
888,-8.112,-1.326,0.479,-0.133,-0.254,-0.255
889,-8.116,-1.341,0.498,-0.104,-0.255,-0.256
890,-8.135,-1.365,0.498,-0.069,-0.253,-0.256
891,-8.145,-1.379,0.493,-0.044,-0.25,-0.255
892,-8.155,-1.398,0.503,-0.02,-0.245,-0.255
893,-8.169,-1.432,0.503,0.01,-0.234,-0.254
894,-8.179,-1.451,0.503,0.03,-0.225,-0.252
895,-8.198,-1.47,0.508,0.05,-0.214,-0.252
896,-8.231,-1.504,0.508,0.072,-0.197,-0.249
897,-8.274,-1.523,0.503,0.087,-0.182,-0.246
898,-8.337,-1.537,0.503,0.105,-0.16,-0.242
899,-8.384,-1.542,0.493,0.119,-0.142,-0.236
900,-8.442,-1.551,0.488,0.13,-0.123,-0.23
901,-8.528,-1.566,0.479,0.143,-0.096,-0.219
902,-8.586,-1.561,0.484,0.152,-0.075,-0.209
903,-8.633,-1.456,0.479,0.16,-0.054,-0.194
904,-8.724,-1.48,0.512,0.166,-0.029,-0.163
905,-8.763,-1.494,0.503,0.164,-0.013,-0.145
906,-8.825,-1.484,0.527,0.162,0.006,-0.121
907,-8.873,-1.465,0.551,0.16,0.015,-0.102
908,-8.911,-1.441,0.575,0.158,0.021,-0.081
909,-9.069,-1.379,0.761,0.159,-0.009,0.018
910,-9.088,-1.374,0.795,0.155,-0.021,0.037
911,-9.112,-1.365,0.809,0.146,-0.035,0.06
912,-9.127,-1.35,0.824,0.137,-0.041,0.077
913,-9.141,-1.341,0.833,0.124,-0.043,0.092
914,-9.16,-1.331,0.867,0.103,-0.04,0.112
915,-9.175,-1.322,0.881,0.084,-0.03,0.125
916,-9.184,-1.317,0.91,0.062,-0.016,0.136
917,-9.203,-1.307,0.943,0.03,0.012,0.148
918,-9.227,-1.298,0.977,0.005,0.04,0.156
919,-9.266,-1.293,1.001,-0.021,0.073,0.162
920,-9.313,-1.283,1.02,-0.057,0.125,0.168
921,-9.366,-1.279,1.03,-0.085,0.169,0.172
922,-9.409,-1.274,1.039,-0.112,0.216,0.175
923,-9.476,-1.279,1.049,-0.148,0.281,0.178
924,-9.515,-1.279,1.053,-0.174,0.33,0.18
925,-9.567,-1.279,1.068,-0.207,0.392,0.183
926,-9.61,-1.279,1.087,-0.229,0.434,0.186
927,-9.649,-1.269,1.097,-0.248,0.469,0.189
928,-9.687,-1.279,1.111,-0.266,0.503,0.194
929,-9.701,-1.283,1.135,-0.276,0.519,0.197
930,-9.701,-1.293,1.164,-0.28,0.523,0.201
931,-9.697,-1.293,1.178,-0.278,0.512,0.204
932,-9.673,-1.283,1.183,-0.27,0.491,0.205
933,-9.644,-1.279,1.183,-0.258,0.46,0.205
934,-9.586,-1.269,1.188,-0.236,0.405,0.205
935,-9.534,-1.259,1.188,-0.215,0.356,0.205
936,-9.476,-1.24,1.183,-0.191,0.3,0.204
937,-9.385,-1.211,1.164,-0.155,0.221,0.203
938,-9.309,-1.183,1.14,-0.127,0.16,0.202
939,-9.199,-1.149,1.125,-0.087,0.082,0.2
940,-9.112,-1.13,1.106,-0.056,0.028,0.197
941,-9.031,-1.106,1.092,-0.025,-0.021,0.194
942,-8.921,-1.082,1.068,0.015,-0.075,0.188
943,-8.839,-1.073,1.063,0.045,-0.106,0.182
944,-8.763,-1.058,1.049,0.073,-0.126,0.173
945,-8.681,-1.039,1.025,0.109,-0.136,0.16
946,-8.624,-1.034,1.015,0.134,-0.132,0.149
947,-8.586,-1.02,1.001,0.157,-0.116,0.137
948,-8.562,-1.01,1.001,0.185,-0.076,0.119
949,-8.562,-1.001,0.986,0.201,-0.034,0.107
950,-8.576,-0.996,0.982,0.214,0.018,0.094
951,-8.633,-1.001,0.972,0.226,0.101,0.08
952,-8.701,-1.006,0.962,0.23,0.171,0.07
953,-8.787,-1.015,0.953,0.23,0.244,0.062
954,-8.935,-1.025,0.958,0.224,0.345,0.054
955,-9.064,-1.039,0.953,0.216,0.419,0.049
956,-9.203,-1.058,0.953,0.205,0.489,0.046
957,-9.414,-1.082,0.967,0.186,0.572,0.045
958,-9.582,-1.097,0.977,0.171,0.626,0.046
959,-9.74,-1.116,0.982,0.154,0.669,0.05
960,-9.96,-1.125,1.001,0.131,0.709,0.056
961,-10.132,-1.135,1.01,0.116,0.726,0.062
962,-10.295,-1.149,1.025,0.099,0.731,0.068
963,-10.491,-1.159,1.044,0.078,0.721,0.079
964,-10.63,-1.159,1.073,0.062,0.699,0.088
965,-10.75,-1.159,1.097,0.047,0.667,0.096
966,-10.894,-1.159,1.116,0.028,0.611,0.106
967,-10.989,-1.159,1.125,0.012,0.56,0.113
968,-11.047,-1.159,1.13,-0.003,0.505,0.12
969,-11.1,-1.154,1.125,-0.022,0.425,0.127
970,-11.114,-1.149,1.125,-0.037,0.363,0.131
971,-11.095,-1.144,1.125,-0.056,0.278,0.136
972,-11.056,-1.144,1.135,-0.07,0.216,0.138
973,-11.004,-1.144,1.144,-0.084,0.156,0.139
974,-10.903,-1.149,1.154,-0.102,0.081,0.138
975,-10.817,-1.154,1.154,-0.114,0.03,0.136
976,-10.716,-1.164,1.154,-0.126,-0.015,0.131
977,-10.568,-1.173,1.178,-0.141,-0.066,0.125
978,-10.448,-1.183,1.183,-0.151,-0.096,0.119
979,-9.907,-1.245,1.25,-0.187,-0.133,0.083
980,-9.807,-1.264,1.269,-0.191,-0.119,0.076
981,-9.706,-1.298,1.288,-0.194,-0.096,0.068
982,-9.591,-1.331,1.302,-0.197,-0.056,0.058
983,-9.524,-1.369,1.312,-0.197,-0.019,0.052
984,-9.457,-1.413,1.336,-0.194,0.037,0.044
985,-9.428,-1.441,1.341,-0.189,0.082,0.038
986,-9.409,-1.46,1.346,-0.184,0.13,0.034
987,-9.409,-1.499,1.35,-0.172,0.195,0.031
988,-9.419,-1.508,1.355,-0.161,0.242,0.029
989,-9.438,-1.528,1.36,-0.148,0.288,0.03
990,-9.495,-1.532,1.341,-0.129,0.344,0.032
991,-9.553,-1.537,1.322,-0.113,0.381,0.037
992,-9.62,-1.532,1.307,-0.096,0.413,0.043
993,-9.716,-1.523,1.298,-0.072,0.446,0.052
994,-9.778,-1.504,1.283,-0.054,0.464,0.06
995,-9.84,-1.484,1.269,-0.036,0.474,0.069
996,-9.917,-1.465,1.216,-0.013,0.479,0.082
997,-9.984,-1.441,1.188,0.003,0.475,0.09
998,-10.051,-1.408,1.14,0.022,0.46,0.101
999,-10.099,-1.379,1.101,0.034,0.442,0.11
1000,-10.132,-1.346,1.068,0.045,0.418,0.117
1001,-10.18,-1.298,1.006,0.055,0.381,0.125
1002,-10.199,-1.274,0.958,0.061,0.35,0.13
1003,-10.209,-1.235,0.919,0.065,0.316,0.135
1004,-10.228,-1.188,0.867,0.067,0.268,0.138
1005,-10.233,-1.149,0.843,0.066,0.233,0.14
1006,-10.228,-1.125,0.824,0.063,0.199,0.141
1007,-10.209,-1.077,0.804,0.056,0.154,0.139
1008,-10.185,-1.039,0.79,0.05,0.123,0.137
1009,-10.151,-0.991,0.771,0.043,0.094,0.134
1010,-10.108,-0.948,0.761,0.033,0.058,0.128
1011,-10.065,-0.91,0.766,0.025,0.035,0.123
1012,-10.022,-0.876,0.776,0.016,0.015,0.116
1013,-9.96,-0.848,0.8,0.004,-0.009,0.106
1014,-9.902,-0.824,0.824,-0.004,-0.024,0.098
1015,-9.855,-0.8,0.852,-0.012,-0.037,0.087
1016,-9.778,-0.781,0.891,-0.023,-0.051,0.073
1017,-9.725,-0.766,0.91,-0.031,-0.059,0.063
1018,-9.673,-0.757,0.953,-0.039,-0.066,0.051
1019,-9.591,-0.737,0.996,-0.049,-0.073,0.036
1020,-9.538,-0.733,1.01,-0.057,-0.077,0.025
1021,-9.462,-0.728,1.034,-0.067,-0.079,0.01
1022,-9.409,-0.728,1.058,-0.074,-0.079,-0.001
1023,-9.357,-0.728,1.092,-0.081,-0.078,-0.012
1024,-9.285,-0.733,1.12,-0.09,-0.075,-0.025
1025,-9.227,-0.737,1.14,-0.096,-0.072,-0.035
1026,-9.179,-0.747,1.164,-0.101,-0.067,-0.044
1027,-9.117,-0.757,1.192,-0.106,-0.061,-0.055
1028,-9.069,-0.766,1.216,-0.108,-0.056,-0.063
1029,-9.012,-0.785,1.25,-0.108,-0.051,-0.072
1030,-8.973,-0.79,1.255,-0.105,-0.047,-0.078
1031,-8.926,-0.8,1.274,-0.102,-0.043,-0.084
1032,-8.72,-0.871,1.317,-0.066,-0.034,-0.106
1033,-8.681,-0.881,1.317,-0.056,-0.033,-0.11
1034,-8.629,-0.895,1.317,-0.041,-0.033,-0.115
1035,-8.586,-0.905,1.322,-0.029,-0.032,-0.119
1036,-8.538,-0.924,1.312,-0.013,-0.03,-0.123
1037,-8.499,-0.939,1.312,-0.002,-0.029,-0.126
1038,-8.466,-0.948,1.302,0.01,-0.028,-0.128
1039,-8.418,-0.958,1.293,0.026,-0.024,-0.132
1040,-8.389,-0.972,1.293,0.038,-0.021,-0.135
1041,-8.37,-0.982,1.283,0.049,-0.017,-0.136
1042,-8.341,-0.996,1.279,0.065,-0.013,-0.139
1043,-8.322,-1.001,1.283,0.078,-0.009,-0.141
1044,-8.298,-1.001,1.302,0.094,-0.003,-0.143
1045,-8.284,-1.015,1.312,0.107,0.001,-0.143
1046,-8.27,-1.03,1.317,0.12,0.004,-0.144
1047,-8.255,-1.039,1.346,0.137,0.009,-0.144
1048,-8.246,-1.049,1.346,0.149,0.014,-0.144
1049,-8.236,-1.058,1.365,0.161,0.017,-0.143
1050,-8.226,-1.063,1.379,0.178,0.023,-0.142
1051,-8.217,-1.073,1.379,0.19,0.028,-0.141
1052,-8.203,-1.082,1.379,0.202,0.032,-0.14
1053,-8.179,-1.097,1.389,0.218,0.038,-0.139
1054,-8.169,-1.101,1.398,0.23,0.042,-0.137
1055,-8.155,-1.106,1.403,0.243,0.045,-0.136
1056,-8.131,-1.101,1.417,0.259,0.048,-0.134
1057,-8.116,-1.106,1.427,0.271,0.051,-0.132
1058,-8.092,-1.111,1.427,0.288,0.053,-0.13
1059,-8.068,-1.116,1.417,0.3,0.055,-0.129
1060,-8.049,-1.111,1.413,0.311,0.057,-0.127
1061,-8.03,-1.106,1.417,0.326,0.059,-0.126
1062,-8.006,-1.106,1.413,0.337,0.063,-0.125
1063,-7.982,-1.106,1.413,0.345,0.067,-0.125
1064,-7.944,-1.106,1.403,0.356,0.076,-0.124
1065,-7.925,-1.101,1.389,0.363,0.083,-0.124
1066,-7.91,-1.101,1.384,0.37,0.091,-0.125
1067,-7.887,-1.101,1.379,0.375,0.103,-0.126
1068,-7.858,-1.101,1.379,0.376,0.112,-0.128
1069,-7.839,-1.097,1.369,0.378,0.123,-0.13
1070,-7.805,-1.092,1.35,0.376,0.136,-0.133
1071,-7.776,-1.101,1.336,0.373,0.146,-0.136
1072,-7.743,-1.12,1.317,0.367,0.159,-0.141
1073,-7.724,-1.13,1.302,0.361,0.168,-0.146
1074,-7.705,-1.135,1.298,0.354,0.176,-0.151
1075,-7.681,-1.164,1.274,0.341,0.187,-0.158
1076,-7.671,-1.183,1.264,0.33,0.194,-0.163
1077,-7.666,-1.202,1.25,0.319,0.202,-0.169
1078,-7.666,-1.255,1.231,0.303,0.214,-0.176
1079,-7.666,-1.293,1.216,0.29,0.223,-0.182
1080,-7.676,-1.341,1.192,0.277,0.235,-0.187
1081,-7.709,-1.403,1.159,0.261,0.255,-0.195
1082,-7.752,-1.451,1.13,0.25,0.273,-0.201
1083,-7.796,-1.513,1.116,0.239,0.293,-0.205
1084,-7.872,-1.599,1.087,0.227,0.324,-0.21
1085,-7.934,-1.666,1.082,0.221,0.351,-0.214
1086,-8.006,-1.729,1.068,0.215,0.38,-0.216
1087,-8.121,-1.82,1.03,0.211,0.419,-0.217
1088,-8.207,-1.887,1.01,0.211,0.448,-0.217
1089,-8.346,-1.982,0.996,0.215,0.488,-0.215
1090,-8.456,-2.054,0.962,0.219,0.516,-0.211
1091,-8.571,-2.126,0.929,0.226,0.544,-0.206
1092,-8.734,-2.227,0.886,0.24,0.577,-0.198
1093,-8.863,-2.294,0.876,0.251,0.599,-0.191
1094,-8.993,-2.365,0.828,0.265,0.618,-0.182
1095,-9.644,-2.629,0.67,0.351,0.683,-0.127
1096,-9.783,-2.672,0.613,0.374,0.688,-0.113
1097,-9.965,-2.729,0.541,0.404,0.69,-0.092
1098,-10.099,-2.772,0.498,0.428,0.688,-0.075
1099,-10.223,-2.806,0.46,0.454,0.682,-0.058
1100,-10.381,-2.84,0.407,0.488,0.666,-0.035
1101,-10.506,-2.859,0.369,0.514,0.65,-0.017
1102,-10.616,-2.873,0.321,0.54,0.628,0.001
1103,-10.76,-2.868,0.278,0.574,0.595,0.025
1104,-10.851,-2.863,0.249,0.598,0.564,0.043
1105,-10.937,-2.844,0.196,0.622,0.53,0.06
1106,-11.032,-2.811,0.129,0.651,0.48,0.084
1107,-11.085,-2.787,0.086,0.672,0.44,0.099
1108,-11.138,-2.758,0.057,0.689,0.397,0.114
1109,-11.181,-2.71,0.0,0.709,0.339,0.132
1110,-11.2,-2.662,-0.043,0.721,0.295,0.144
1111,-11.2,-2.614,-0.067,0.731,0.251,0.154
1112,-11.2,-2.528,-0.101,0.739,0.192,0.166
1113,-11.181,-2.466,-0.115,0.741,0.149,0.173
1114,-11.147,-2.375,-0.134,0.741,0.093,0.179
1115,-11.109,-2.298,-0.134,0.737,0.052,0.181
1116,-11.061,-2.227,-0.129,0.73,0.013,0.183
1117,-10.985,-2.131,-0.124,0.716,-0.037,0.181
1118,-10.918,-2.064,-0.11,0.702,-0.071,0.177
1119,-10.855,-1.992,-0.096,0.686,-0.101,0.17
1120,-10.769,-1.901,-0.086,0.658,-0.137,0.158
1121,-10.707,-1.844,-0.072,0.634,-0.159,0.147
1122,-10.645,-1.786,-0.057,0.607,-0.177,0.134
1123,-10.558,-1.724,-0.034,0.567,-0.192,0.114
1124,-10.501,-1.681,-0.024,0.532,-0.197,0.097
1125,-10.415,-1.638,0.01,0.483,-0.195,0.073
1126,-10.367,-1.609,0.038,0.443,-0.187,0.053
1127,-10.329,-1.58,0.062,0.401,-0.173,0.032
1128,-10.295,-1.561,0.101,0.343,-0.147,0.003
1129,-10.271,-1.551,0.134,0.301,-0.123,-0.019
1130,-10.242,-1.561,0.177,0.258,-0.096,-0.041
1131,-10.204,-1.571,0.225,0.202,-0.055,-0.069
1132,-10.185,-1.585,0.273,0.162,-0.025,-0.089
1133,-10.161,-1.618,0.33,0.115,0.015,-0.114
1134,-10.151,-1.638,0.383,0.084,0.042,-0.132
1135,-10.147,-1.662,0.431,0.056,0.065,-0.148
1136,-10.127,-1.695,0.503,0.027,0.088,-0.166
1137,-10.108,-1.724,0.551,0.011,0.099,-0.178
1138,-9.95,-1.872,0.737,-0.002,0.073,-0.208
1139,-9.902,-1.887,0.79,0.007,0.052,-0.211
1140,-9.85,-1.911,0.814,0.019,0.027,-0.211
1141,-9.773,-1.93,0.843,0.038,-0.009,-0.212
1142,-9.701,-1.939,0.871,0.055,-0.039,-0.211
1143,-9.629,-1.944,0.891,0.073,-0.069,-0.209
1144,-9.529,-1.958,0.895,0.098,-0.109,-0.206
1145,-9.448,-1.958,0.9,0.118,-0.135,-0.205
1146,-9.366,-1.968,0.91,0.137,-0.159,-0.202
1147,-9.246,-1.968,0.91,0.164,-0.186,-0.199
1148,-9.155,-1.968,0.919,0.184,-0.202,-0.197
1149,-9.041,-1.963,0.924,0.211,-0.215,-0.195
1150,-8.959,-1.958,0.934,0.23,-0.219,-0.194
1151,-8.878,-1.949,0.943,0.248,-0.218,-0.193
1152,-8.772,-1.944,0.962,0.271,-0.209,-0.192
1153,-8.705,-1.954,0.967,0.288,-0.196,-0.192
1154,-8.657,-1.963,0.977,0.303,-0.178,-0.192
1155,-8.605,-1.968,0.986,0.32,-0.146,-0.191
1156,-8.581,-1.978,0.991,0.332,-0.116,-0.19
1157,-8.571,-1.982,0.991,0.346,-0.071,-0.187
1158,-8.576,-1.982,0.991,0.354,-0.032,-0.185
1159,-8.605,-1.987,0.991,0.36,0.009,-0.182
1160,-8.648,-1.997,0.982,0.367,0.068,-0.176
1161,-8.705,-2.006,0.982,0.37,0.112,-0.171
1162,-8.772,-2.016,0.977,0.372,0.156,-0.164
1163,-8.878,-2.021,0.982,0.373,0.212,-0.153
1164,-8.964,-2.025,0.986,0.373,0.251,-0.144
1165,-9.055,-2.03,0.996,0.373,0.286,-0.134
1166,-9.179,-2.03,0.996,0.372,0.324,-0.119
1167,-9.28,-2.03,0.996,0.371,0.345,-0.106
1168,-9.404,-2.025,0.977,0.369,0.363,-0.087
1169,-9.481,-2.021,0.972,0.368,0.367,-0.073
1170,-9.553,-2.011,0.972,0.366,0.365,-0.057
1171,-9.639,-2.002,0.953,0.365,0.35,-0.036
1172,-9.692,-1.982,0.939,0.365,0.331,-0.02
1173,-9.74,-1.963,0.919,0.364,0.306,-0.004
1174,-9.778,-1.935,0.9,0.363,0.263,0.018
1175,-9.797,-1.915,0.881,0.361,0.225,0.033
1176,-9.802,-1.896,0.857,0.36,0.184,0.047
1177,-9.797,-1.858,0.819,0.357,0.126,0.065
1178,-9.773,-1.824,0.804,0.353,0.082,0.077
1179,-9.74,-1.791,0.781,0.35,0.038,0.087
1180,-9.677,-1.748,0.747,0.345,-0.017,0.1
1181,-9.615,-1.709,0.718,0.339,-0.055,0.108
1182,-9.553,-1.671,0.709,0.333,-0.09,0.116
1183,-9.457,-1.623,0.68,0.325,-0.131,0.123
1184,-9.385,-1.58,0.666,0.319,-0.155,0.127
1185,-9.318,-1.542,0.651,0.31,-0.174,0.13
1186,-9.227,-1.489,0.651,0.299,-0.192,0.132
1187,-9.16,-1.451,0.646,0.291,-0.199,0.132
1188,-9.079,-1.403,0.637,0.278,-0.201,0.131
1189,-9.017,-1.369,0.622,0.268,-0.196,0.128
1190,-8.959,-1.346,0.618,0.258,-0.187,0.125
1191,-8.906,-1.312,0.618,0.244,-0.169,0.118
1192,-8.868,-1.288,0.622,0.233,-0.15,0.112
1193,-8.835,-1.269,0.622,0.222,-0.131,0.106
1194,-8.796,-1.235,0.646,0.207,-0.102,0.097
1195,-8.787,-1.216,0.646,0.197,-0.079,0.09
1196,-8.787,-1.197,0.651,0.186,-0.058,0.082
1197,-8.777,-1.183,0.67,0.174,-0.031,0.073
1198,-8.777,-1.164,0.68,0.166,-0.014,0.066
1199,-8.782,-1.154,0.694,0.159,-0.001,0.059
1200,-8.777,-1.135,0.723,0.151,0.012,0.051
1201,-8.768,-1.12,0.733,0.148,0.015,0.045
1202,-8.763,-1.106,0.747,0.144,0.013,0.038
1203,-8.753,-1.101,0.761,0.144,0.006,0.032
1204,-8.744,-1.097,0.776,0.145,-0.005,0.026
1205,-8.724,-1.092,0.785,0.148,-0.027,0.019
1206,-8.696,-1.092,0.8,0.151,-0.046,0.015
1207,-8.543,-1.116,0.895,0.18,-0.153,-0.009
1208,-8.49,-1.14,0.919,0.191,-0.187,-0.018
1209,-8.452,-1.164,0.934,0.198,-0.208,-0.024
1210,-8.423,-1.207,0.967,0.208,-0.23,-0.033
1211,-8.418,-1.245,0.972,0.214,-0.238,-0.042
1212,-8.432,-1.293,0.972,0.219,-0.236,-0.051
1213,-8.466,-1.369,0.962,0.222,-0.217,-0.064
1214,-8.514,-1.422,0.948,0.223,-0.191,-0.073
1215,-8.566,-1.475,0.934,0.222,-0.152,-0.082
1216,-8.662,-1.542,0.924,0.221,-0.085,-0.091
1217,-8.758,-1.58,0.929,0.219,-0.026,-0.095
1218,-8.897,-1.628,0.929,0.219,0.062,-0.096
1219,-9.012,-1.662,0.929,0.221,0.132,-0.094
1220,-9.136,-1.695,0.924,0.225,0.2,-0.088
1221,-9.318,-1.729,0.948,0.234,0.286,-0.076
1222,-9.443,-1.748,0.948,0.245,0.343,-0.063
1223,-9.577,-1.772,0.943,0.259,0.393,-0.049
1224,-9.74,-1.786,0.967,0.281,0.444,-0.025
1225,-9.869,-1.8,0.977,0.3,0.468,-0.007
1226,-9.984,-1.81,0.958,0.321,0.481,0.012
1227,-10.123,-1.82,0.948,0.351,0.479,0.038
1228,-10.214,-1.82,0.943,0.373,0.464,0.057
1229,-10.295,-1.815,0.948,0.397,0.437,0.076
1230,-10.376,-1.796,0.934,0.428,0.384,0.099
1231,-10.415,-1.772,0.924,0.45,0.335,0.115
1232,-10.439,-1.743,0.929,0.471,0.277,0.13
1233,-10.444,-1.695,0.919,0.498,0.192,0.148
1234,-10.424,-1.657,0.9,0.517,0.125,0.16
1235,-10.381,-1.618,0.891,0.534,0.057,0.171
1236,-10.3,-1.561,0.895,0.554,-0.033,0.183
1237,-10.214,-1.518,0.9,0.567,-0.095,0.189
1238,-10.089,-1.446,0.915,0.581,-0.171,0.194
1239,-9.984,-1.408,0.929,0.588,-0.221,0.196
1240,-9.864,-1.36,0.939,0.595,-0.262,0.196
1241,-9.682,-1.302,0.958,0.599,-0.303,0.192
1242,-9.543,-1.25,0.967,0.6,-0.322,0.187
1243,-9.404,-1.211,0.972,0.6,-0.332,0.18
1244,-9.227,-1.154,0.991,0.597,-0.332,0.167
1245,-9.088,-1.116,0.991,0.592,-0.32,0.156
1246,-8.959,-1.077,0.996,0.587,-0.3,0.144
1247,-8.792,-1.034,0.996,0.578,-0.263,0.126
1248,-8.681,-1.001,0.996,0.571,-0.228,0.11
1249,-8.586,-0.962,1.001,0.562,-0.189,0.093
1250,-8.471,-0.929,0.996,0.55,-0.133,0.071
1251,-8.404,-0.9,0.996,0.54,-0.09,0.054
1252,-8.337,-0.857,0.991,0.527,-0.033,0.031
1253,-8.298,-0.824,0.996,0.515,0.007,0.015
1254,-8.274,-0.8,1.001,0.504,0.044,-0.001
1255,-8.265,-0.771,0.996,0.489,0.086,-0.022
1256,-8.26,-0.747,0.991,0.478,0.113,-0.037
1257,-8.27,-0.733,0.982,0.466,0.134,-0.05
1258,-8.294,-0.718,0.962,0.45,0.152,-0.066
1259,-8.313,-0.718,0.948,0.438,0.16,-0.076
1260,-8.337,-0.713,0.929,0.425,0.162,-0.085
1261,-8.38,-0.713,0.905,0.408,0.156,-0.095
1262,-8.418,-0.718,0.9,0.394,0.147,-0.101
1263,-8.452,-0.737,0.895,0.381,0.134,-0.106
1264,-8.504,-0.757,0.871,0.36,0.112,-0.111
1265,-8.543,-0.781,0.862,0.345,0.094,-0.114
1266,-8.581,-0.819,0.862,0.329,0.076,-0.116
1267,-8.633,-0.867,0.852,0.306,0.051,-0.118
1268,-8.662,-0.905,0.848,0.288,0.034,-0.119
1269,-8.705,-0.967,0.857,0.265,0.015,-0.119
1270,-8.729,-1.02,0.871,0.248,0.002,-0.119
1271,-8.763,-1.068,0.891,0.23,-0.008,-0.118
1272,-8.902,-1.302,0.962,0.163,-0.019,-0.105
1273,-8.94,-1.35,0.977,0.152,-0.016,-0.1
1274,-8.993,-1.408,1.02,0.14,-0.009,-0.093
1275,-9.036,-1.441,1.049,0.133,-0.002,-0.087
1276,-9.074,-1.475,1.092,0.127,0.005,-0.08
1277,-9.122,-1.499,1.125,0.121,0.015,-0.068
1278,-9.16,-1.523,1.159,0.118,0.022,-0.059
1279,-9.194,-1.542,1.188,0.116,0.029,-0.05
1280,-9.242,-1.556,1.211,0.113,0.037,-0.036
1281,-9.28,-1.575,1.221,0.113,0.043,-0.025
1282,-9.323,-1.58,1.24,0.112,0.05,-0.013
1283,-9.371,-1.595,1.25,0.112,0.058,0.003
1284,-9.419,-1.595,1.245,0.112,0.064,0.015
1285,-9.452,-1.595,1.25,0.112,0.07,0.027
1286,-9.495,-1.59,1.245,0.111,0.08,0.041
1287,-9.538,-1.575,1.245,0.109,0.086,0.052
1288,-9.577,-1.561,1.24,0.107,0.094,0.062
1289,-9.634,-1.542,1.245,0.103,0.104,0.074
1290,-9.677,-1.532,1.25,0.099,0.113,0.083
1291,-9.72,-1.528,1.25,0.093,0.123,0.091
1292,-9.783,-1.508,1.245,0.085,0.138,0.1
1293,-9.811,-1.499,1.231,0.078,0.149,0.105
1294,-9.85,-1.489,1.216,0.07,0.162,0.11
1295,-9.902,-1.48,1.202,0.06,0.178,0.115
1296,-9.941,-1.47,1.197,0.051,0.191,0.118
1297,-9.974,-1.46,1.188,0.042,0.204,0.12
1298,-10.003,-1.451,1.159,0.029,0.22,0.121
1299,-10.027,-1.451,1.154,0.02,0.232,0.122
1300,-10.046,-1.446,1.149,0.011,0.243,0.122
1301,-10.075,-1.446,1.135,-0.001,0.255,0.121
1302,-10.094,-1.437,1.116,-0.01,0.262,0.121
1303,-10.132,-1.427,1.106,-0.019,0.269,0.121
1304,-10.151,-1.422,1.092,-0.024,0.273,0.12
1305,-10.171,-1.413,1.082,-0.029,0.275,0.12
1306,-10.185,-1.398,1.058,-0.032,0.274,0.119
1307,-10.195,-1.384,1.044,-0.034,0.273,0.119
1308,-10.209,-1.374,1.03,-0.034,0.271,0.118
1309,-10.218,-1.35,1.02,-0.033,0.266,0.118
1310,-10.223,-1.336,1.01,-0.032,0.262,0.117
1311,-10.218,-1.317,1.006,-0.029,0.256,0.116
1312,-10.209,-1.293,0.986,-0.024,0.249,0.114
1313,-10.204,-1.279,0.982,-0.021,0.244,0.112
1314,-10.195,-1.264,0.972,-0.017,0.238,0.11
1315,-10.171,-1.245,0.958,-0.01,0.232,0.107
1316,-10.166,-1.231,0.943,-0.006,0.228,0.104
1317,-10.142,-1.207,0.929,0.0,0.224,0.099
1318,-10.123,-1.192,0.924,0.005,0.222,0.095
1319,-10.104,-1.183,0.919,0.01,0.221,0.09
1320,-10.08,-1.173,0.915,0.016,0.22,0.084
1321,-10.07,-1.154,0.915,0.02,0.221,0.079
1322,-10.046,-1.149,0.91,0.025,0.221,0.074
1323,-10.027,-1.14,0.905,0.031,0.222,0.067
1324,-10.017,-1.135,0.905,0.036,0.224,0.062
1325,-10.008,-1.125,0.9,0.041,0.224,0.057
1326,-9.989,-1.116,0.9,0.048,0.226,0.051
1327,-9.974,-1.116,0.891,0.053,0.227,0.045
1328,-9.969,-1.111,0.876,0.058,0.227,0.04
1329,-9.946,-1.116,0.881,0.064,0.228,0.034
1330,-9.941,-1.111,0.886,0.068,0.229,0.029
1331,-9.941,-1.106,0.886,0.072,0.23,0.024
1332,-9.931,-1.097,0.886,0.076,0.232,0.018
1333,-9.931,-1.087,0.881,0.079,0.234,0.013
1334,-9.917,-1.082,0.881,0.082,0.237,0.009
1335,-9.922,-1.082,0.871,0.083,0.241,0.003
1336,-9.922,-1.068,0.871,0.083,0.245,0.0
1337,-9.926,-1.063,0.852,0.083,0.248,-0.004
1338,-9.931,-1.053,0.838,0.081,0.253,-0.008
1339,-9.936,-1.049,0.833,0.078,0.258,-0.011
1340,-9.946,-1.053,0.833,0.075,0.261,-0.014
1341,-9.96,-1.053,0.828,0.071,0.265,-0.017
1342,-9.974,-1.053,0.824,0.067,0.268,-0.02
1343,-9.974,-1.058,0.828,0.061,0.269,-0.022
1344,-9.974,-1.063,0.828,0.056,0.268,-0.023
1345,-9.979,-1.063,0.838,0.05,0.267,-0.025
1346,-10.013,-1.082,0.857,0.022,0.252,-0.03
1347,-10.008,-1.092,0.862,0.016,0.248,-0.031
1348,-9.998,-1.092,0.862,0.009,0.243,-0.031
1349,-9.979,-1.087,0.876,0.001,0.237,-0.03
1350,-9.955,-1.087,0.891,-0.005,0.231,-0.03
1351,-9.902,-1.082,0.929,-0.011,0.224,-0.029
1352,-9.859,-1.087,0.943,-0.014,0.217,-0.028
1353,-9.816,-1.082,0.948,-0.017,0.209,-0.026
1354,-9.754,-1.082,0.958,-0.017,0.198,-0.025
1355,-9.692,-1.077,0.972,-0.016,0.188,-0.024
1356,-9.62,-1.073,0.986,-0.014,0.177,-0.022
1357,-9.529,-1.058,0.991,-0.01,0.163,-0.02
1358,-9.452,-1.044,0.991,-0.005,0.152,-0.02
1359,-9.357,-1.034,1.001,0.003,0.138,-0.02
1360,-9.275,-1.025,1.006,0.009,0.128,-0.021
1361,-9.189,-1.025,1.01,0.015,0.119,-0.022
1362,-9.074,-1.01,0.996,0.024,0.109,-0.023
1363,-8.988,-1.001,0.982,0.03,0.103,-0.025
1364,-8.902,-0.991,0.977,0.036,0.099,-0.027
1365,-8.782,-0.977,0.962,0.045,0.096,-0.03
1366,-8.691,-0.972,0.953,0.051,0.095,-0.034
1367,-8.61,-0.958,0.948,0.056,0.097,-0.037
1368,-8.499,-0.948,0.939,0.063,0.101,-0.041
1369,-8.418,-0.948,0.948,0.069,0.106,-0.044
1370,-8.346,-0.939,0.939,0.074,0.112,-0.048
1371,-8.25,-0.919,0.91,0.08,0.121,-0.053
1372,-8.183,-0.915,0.91,0.085,0.129,-0.056
1373,-8.112,-0.91,0.915,0.091,0.141,-0.061
1374,-8.064,-0.91,0.91,0.095,0.15,-0.064
1375,-8.016,-0.91,0.915,0.099,0.159,-0.067
1376,-7.958,-0.905,0.919,0.105,0.17,-0.069
1377,-7.92,-0.905,0.915,0.11,0.178,-0.071
1378,-7.877,-0.91,0.924,0.114,0.185,-0.072
1379,-7.819,-0.905,0.934,0.12,0.192,-0.073
1380,-7.776,-0.895,0.943,0.126,0.195,-0.073
1381,-7.733,-0.881,0.948,0.133,0.195,-0.072
1382,-7.676,-0.871,0.967,0.143,0.193,-0.071
1383,-7.628,-0.867,0.996,0.151,0.187,-0.07
1384,-7.57,-0.867,1.015,0.161,0.18,-0.07
1385,-7.489,-0.852,1.025,0.175,0.167,-0.069
1386,-7.427,-0.857,1.039,0.186,0.154,-0.069
1387,-7.345,-0.857,1.039,0.201,0.135,-0.07
1388,-7.288,-0.867,1.049,0.213,0.121,-0.072
1389,-7.235,-0.871,1.044,0.224,0.106,-0.074
1390,-7.163,-0.876,1.034,0.236,0.089,-0.079
1391,-7.111,-0.881,1.049,0.244,0.078,-0.084
1392,-7.058,-0.891,1.049,0.251,0.071,-0.09
1393,-6.996,-0.91,1.039,0.256,0.069,-0.101
1394,-6.962,-0.929,1.039,0.257,0.073,-0.109
1395,-6.934,-0.948,1.039,0.256,0.083,-0.118
1396,-6.91,-0.977,1.039,0.251,0.104,-0.13
1397,-6.9,-0.996,1.044,0.244,0.126,-0.139
1398,-6.9,-1.015,1.049,0.236,0.151,-0.146
1399,-6.91,-1.039,1.039,0.225,0.191,-0.156
1400,-6.919,-1.063,1.044,0.215,0.222,-0.161
1401,-6.934,-1.092,1.044,0.202,0.262,-0.166
1402,-6.934,-1.116,1.053,0.193,0.29,-0.167
1403,-6.948,-1.149,1.073,0.185,0.315,-0.167
1404,-6.967,-1.188,1.092,0.177,0.341,-0.165
1405,-6.981,-1.221,1.097,0.172,0.355,-0.161
1406,-7.001,-1.255,1.092,0.17,0.364,-0.157
1407,-7.025,-1.298,1.092,0.169,0.366,-0.151
1408,-7.049,-1.336,1.087,0.168,0.361,-0.146
1409,-7.068,-1.379,1.082,0.169,0.353,-0.139
1410,-7.092,-1.441,1.087,0.171,0.336,-0.131
1411,-7.106,-1.499,1.082,0.173,0.321,-0.126
1412,-7.13,-1.561,1.068,0.175,0.306,-0.12
1413,-7.254,-1.839,0.939,0.192,0.25,-0.095
1414,-7.293,-1.896,0.91,0.197,0.246,-0.089
1415,-7.35,-1.982,0.867,0.207,0.246,-0.082
1416,-7.412,-2.04,0.833,0.217,0.25,-0.076
1417,-7.484,-2.107,0.8,0.228,0.257,-0.069
1418,-7.585,-2.184,0.757,0.244,0.271,-0.059
1419,-7.676,-2.241,0.723,0.259,0.285,-0.05
1420,-7.781,-2.289,0.685,0.275,0.301,-0.041
1421,-7.944,-2.356,0.627,0.297,0.325,-0.027
1422,-8.073,-2.399,0.575,0.314,0.345,-0.016
1423,-8.212,-2.433,0.541,0.332,0.366,-0.003
1424,-8.413,-2.476,0.479,0.355,0.394,0.014
1425,-8.581,-2.5,0.436,0.371,0.414,0.028
1426,-8.82,-2.519,0.388,0.392,0.44,0.049
1427,-9.007,-2.523,0.345,0.407,0.456,0.064
1428,-9.203,-2.528,0.268,0.42,0.474,0.079
1429,-9.471,-2.528,0.187,0.434,0.495,0.101
1430,-9.677,-2.528,0.144,0.443,0.507,0.117
1431,-9.893,-2.514,0.115,0.45,0.516,0.131
1432,-10.185,-2.471,0.024,0.455,0.521,0.151
1433,-10.41,-2.437,-0.038,0.455,0.523,0.165
1434,-10.63,-2.404,-0.081,0.454,0.52,0.177
1435,-10.927,-2.356,-0.134,0.449,0.509,0.193
1436,-11.138,-2.318,-0.172,0.441,0.493,0.203
1437,-11.339,-2.27,-0.215,0.431,0.472,0.211
1438,-11.598,-2.198,-0.297,0.412,0.438,0.218
1439,-11.779,-2.15,-0.34,0.393,0.406,0.221
1440,-11.937,-2.093,-0.373,0.37,0.369,0.223
1441,-12.129,-2.016,-0.431,0.333,0.312,0.221
1442,-12.254,-1.958,-0.469,0.3,0.265,0.217
1443,-12.373,-1.906,-0.484,0.261,0.213,0.211
1444,-12.503,-1.824,-0.527,0.202,0.139,0.199
1445,-12.574,-1.762,-0.546,0.152,0.082,0.187
1446,-12.632,-1.686,-0.565,0.076,0.003,0.169
1447,-12.656,-1.638,-0.594,0.013,-0.057,0.155
1448,-12.665,-1.58,-0.618,-0.055,-0.116,0.138
1449,-12.641,-1.504,-0.637,-0.15,-0.192,0.115
1450,-12.608,-1.456,-0.637,-0.226,-0.248,0.096
1451,-12.565,-1.417,-0.622,-0.304,-0.303,0.076
1452,-12.488,-1.369,-0.613,-0.41,-0.373,0.048
1453,-12.412,-1.346,-0.599,-0.49,-0.421,0.025
1454,-12.301,-1.331,-0.57,-0.597,-0.479,-0.006
1455,-12.206,-1.322,-0.541,-0.676,-0.516,-0.029
1456,-12.105,-1.312,-0.512,-0.752,-0.548,-0.054
1457,-11.961,-1.312,-0.445,-0.849,-0.581,-0.089
1458,-11.842,-1.326,-0.407,-0.916,-0.599,-0.116
1459,-11.32,-1.547,-0.163,-1.148,-0.613,-0.255
1460,-11.219,-1.604,-0.115,-1.177,-0.603,-0.286
1461,-11.085,-1.686,-0.057,-1.207,-0.582,-0.325
1462,-11.009,-1.791,0.005,-1.22,-0.561,-0.354
1463,-10.961,-1.915,0.077,-1.223,-0.537,-0.383
1464,-10.908,-2.078,0.168,-1.21,-0.504,-0.425
1465,-10.884,-2.203,0.23,-1.19,-0.478,-0.46
1466,-10.87,-2.346,0.292,-1.152,-0.444,-0.506
1467,-10.874,-2.433,0.335,-1.117,-0.417,-0.538
1468,-10.884,-2.509,0.364,-1.077,-0.389,-0.566
1469,-10.908,-2.586,0.388,-1.018,-0.351,-0.595
1470,-10.942,-2.634,0.397,-0.969,-0.32,-0.605
1471,-10.975,-2.696,0.412,-0.901,-0.277,-0.606
1472,-11.013,-2.772,0.421,-0.845,-0.244,-0.598
1473,-11.066,-2.868,0.45,-0.786,-0.213,-0.586
1474,-11.147,-3.017,0.503,-0.695,-0.178,-0.566
1475,-11.195,-3.132,0.532,-0.619,-0.159,-0.552
1476,-11.243,-3.237,0.565,-0.536,-0.147,-0.54
1477,-11.296,-3.338,0.589,-0.419,-0.141,-0.527
1478,-11.32,-3.381,0.594,-0.327,-0.143,-0.515
1479,-11.358,-3.405,0.599,-0.201,-0.156,-0.497
1480,-11.363,-3.405,0.594,-0.105,-0.17,-0.479
1481,-11.372,-3.385,0.594,-0.009,-0.188,-0.458
1482,-11.368,-3.342,0.594,0.118,-0.217,-0.424
1483,-11.358,-3.314,0.589,0.211,-0.242,-0.395
1484,-11.171,-3.122,0.512,0.597,-0.367,-0.262
1485,-11.095,-3.05,0.493,0.669,-0.391,-0.238
1486,-11.013,-2.964,0.479,0.735,-0.414,-0.215
1487,-10.874,-2.835,0.45,0.818,-0.443,-0.187
1488,-10.764,-2.744,0.426,0.876,-0.463,-0.167
1489,-10.611,-2.634,0.397,0.945,-0.488,-0.143
1490,-10.487,-2.543,0.393,0.991,-0.506,-0.128
1491,-10.362,-2.456,0.397,1.035,-0.521,-0.115
1492,-10.199,-2.337,0.393,1.087,-0.54,-0.104
1493,-10.075,-2.241,0.388,1.121,-0.553,-0.1
1494,-9.95,-2.15,0.364,1.15,-0.565,-0.098
1495,-9.787,-2.03,0.34,1.181,-0.58,-0.1
1496,-9.668,-1.939,0.316,1.197,-0.588,-0.104
1497,-9.51,-1.815,0.297,1.206,-0.594,-0.113
1498,-9.4,-1.719,0.283,1.204,-0.596,-0.12
1499,-9.29,-1.618,0.259,1.196,-0.595,-0.128
1500,-9.16,-1.494,0.244,1.175,-0.589,-0.138
1501,-9.064,-1.408,0.23,1.151,-0.582,-0.146
1502,-8.973,-1.326,0.225,1.124,-0.573,-0.155
1503,-8.868,-1.231,0.22,1.081,-0.559,-0.166
1504,-8.787,-1.164,0.225,1.043,-0.547,-0.176
1505,-8.691,-1.097,0.244,0.99,-0.531,-0.189
1506,-8.624,-1.049,0.254,0.948,-0.52,-0.2
1507,-8.557,-1.01,0.268,0.904,-0.508,-0.211
1508,-8.475,-0.972,0.283,0.842,-0.493,-0.227
1509,-8.418,-0.948,0.297,0.795,-0.483,-0.24
1510,-8.375,-0.929,0.306,0.748,-0.474,-0.253
1511,-8.313,-0.919,0.33,0.685,-0.464,-0.272
1512,-8.284,-0.919,0.354,0.639,-0.457,-0.286
1513,-8.246,-0.934,0.373,0.575,-0.45,-0.303
1514,-8.212,-0.939,0.383,0.529,-0.444,-0.316
1515,-8.193,-0.953,0.397,0.483,-0.44,-0.329
1516,-8.164,-0.972,0.417,0.421,-0.432,-0.345
1517,-8.145,-0.986,0.421,0.376,-0.428,-0.355
1518,-8.121,-1.001,0.436,0.332,-0.423,-0.365
1519,-8.097,-1.02,0.455,0.275,-0.418,-0.376
1520,-8.078,-1.049,0.474,0.233,-0.415,-0.383
1521,-8.049,-1.073,0.493,0.18,-0.412,-0.389
1522,-8.025,-1.092,0.512,0.142,-0.413,-0.392
1523,-7.987,-1.111,0.532,0.106,-0.415,-0.393
1524,-7.944,-1.149,0.551,0.061,-0.422,-0.393
1525,-7.91,-1.178,0.56,0.03,-0.43,-0.391
1526,-7.652,-1.298,0.632,-0.081,-0.493,-0.372
1527,-7.59,-1.322,0.661,-0.098,-0.511,-0.366
1528,-7.518,-1.341,0.67,-0.112,-0.529,-0.36
1529,-7.427,-1.365,0.69,-0.128,-0.552,-0.352
1530,-7.355,-1.379,0.704,-0.137,-0.568,-0.346
1531,-7.254,-1.408,0.733,-0.148,-0.587,-0.337
1532,-7.178,-1.422,0.737,-0.155,-0.599,-0.331
1533,-7.101,-1.437,0.747,-0.16,-0.608,-0.324
1534,-7.001,-1.46,0.757,-0.165,-0.615,-0.315
1535,-6.938,-1.475,0.761,-0.169,-0.617,-0.309
1536,-6.852,-1.489,0.781,-0.173,-0.613,-0.3
1537,-6.79,-1.504,0.785,-0.176,-0.605,-0.293
1538,-6.742,-1.523,0.79,-0.179,-0.594,-0.287
1539,-6.685,-1.542,0.809,-0.183,-0.574,-0.279
1540,-6.642,-1.556,0.814,-0.186,-0.555,-0.271
1541,-6.613,-1.566,0.814,-0.188,-0.533,-0.263
1542,-6.589,-1.575,0.819,-0.193,-0.5,-0.252
1543,-6.579,-1.575,0.819,-0.196,-0.473,-0.242
1544,-6.579,-1.571,0.828,-0.2,-0.435,-0.228
1545,-6.579,-1.571,0.819,-0.202,-0.407,-0.216
1546,-6.594,-1.566,0.824,-0.204,-0.379,-0.204
1547,-6.613,-1.556,0.828,-0.207,-0.344,-0.186
1548,-6.632,-1.547,0.843,-0.208,-0.322,-0.171
1549,-6.665,-1.528,0.852,-0.209,-0.298,-0.152
1550,-6.685,-1.518,0.852,-0.209,-0.284,-0.139
1551,-6.709,-1.499,0.862,-0.21,-0.275,-0.125
1552,-6.737,-1.484,0.857,-0.21,-0.269,-0.107
1553,-6.752,-1.47,0.862,-0.21,-0.269,-0.095
1554,-6.776,-1.451,0.871,-0.21,-0.272,-0.083
1555,-6.804,-1.427,0.867,-0.212,-0.28,-0.069
1556,-6.833,-1.408,0.862,-0.214,-0.288,-0.059
1557,-6.867,-1.389,0.852,-0.217,-0.298,-0.048
1558,-6.886,-1.369,0.848,-0.221,-0.303,-0.041
1559,-6.91,-1.355,0.848,-0.227,-0.307,-0.034
1560,-7.034,-1.274,0.891,-0.261,-0.284,-0.015
1561,-7.072,-1.25,0.91,-0.27,-0.269,-0.013
1562,-7.12,-1.221,0.939,-0.281,-0.244,-0.011
1563,-7.163,-1.207,0.972,-0.29,-0.223,-0.011
1564,-7.23,-1.192,1.025,-0.301,-0.191,-0.011
1565,-7.283,-1.188,1.068,-0.309,-0.165,-0.012
1566,-7.331,-1.183,1.097,-0.316,-0.136,-0.014
1567,-7.403,-1.192,1.154,-0.327,-0.097,-0.017
1568,-7.465,-1.197,1.207,-0.334,-0.067,-0.02
1569,-7.566,-1.211,1.274,-0.344,-0.025,-0.025
1570,-7.647,-1.226,1.317,-0.35,0.007,-0.029
1571,-7.738,-1.231,1.355,-0.358,0.039,-0.033
1572,-7.872,-1.245,1.413,-0.368,0.083,-0.037
1573,-7.977,-1.259,1.451,-0.376,0.117,-0.039
1574,-8.092,-1.283,1.48,-0.384,0.152,-0.041
1575,-8.27,-1.298,1.528,-0.396,0.202,-0.041
1576,-8.399,-1.307,1.566,-0.405,0.241,-0.04
1577,-8.6,-1.312,1.595,-0.42,0.296,-0.035
1578,-8.758,-1.312,1.604,-0.433,0.341,-0.031
1579,-8.94,-1.312,1.618,-0.45,0.387,-0.023
1580,-9.184,-1.317,1.638,-0.477,0.45,-0.011
1581,-9.376,-1.322,1.652,-0.501,0.499,-0.001
1582,-9.572,-1.322,1.662,-0.53,0.548,0.011
1583,-9.845,-1.326,1.671,-0.574,0.613,0.029
1584,-10.051,-1.336,1.666,-0.612,0.661,0.044
1585,-10.266,-1.346,1.657,-0.652,0.709,0.059
1586,-10.534,-1.355,1.652,-0.71,0.768,0.081
1587,-10.74,-1.369,1.662,-0.755,0.809,0.099
1588,-10.989,-1.403,1.638,-0.814,0.857,0.122
1589,-11.162,-1.446,1.618,-0.856,0.891,0.138
1590,-11.325,-1.499,1.633,-0.896,0.92,0.155
1591,-11.516,-1.551,1.647,-0.944,0.949,0.176
1592,-11.631,-1.599,1.638,-0.975,0.961,0.191
1593,-11.746,-1.647,1.628,-0.999,0.968,0.206
1594,-11.87,-1.719,1.633,-1.023,0.967,0.223
1595,-11.952,-1.776,1.657,-1.034,0.957,0.236
1596,-12.019,-1.824,1.671,-1.037,0.938,0.248
1597,-12.1,-1.891,1.69,-1.032,0.905,0.261
1598,-12.134,-1.935,1.681,-1.019,0.877,0.27
1599,-12.167,-1.963,1.695,-1.0,0.844,0.279
1600,-12.206,-2.006,1.719,-0.965,0.796,0.29
1601,-12.23,-2.045,1.729,-0.932,0.759,0.298
1602,-12.263,-2.121,1.709,-0.725,0.625,0.337
1603,-12.254,-2.136,1.705,-0.674,0.611,0.347
1604,-12.23,-2.131,1.7,-0.621,0.602,0.358
1605,-12.206,-2.126,1.671,-0.55,0.6,0.374
1606,-12.177,-2.102,1.652,-0.497,0.605,0.387
1607,-12.134,-2.064,1.609,-0.424,0.618,0.406
1608,-12.096,-2.03,1.585,-0.369,0.631,0.422
1609,-12.067,-1.982,1.571,-0.314,0.645,0.439
1610,-12.014,-1.92,1.551,-0.242,0.665,0.461
1611,-11.961,-1.872,1.542,-0.188,0.678,0.479
1612,-11.909,-1.82,1.508,-0.134,0.689,0.495
1613,-11.837,-1.733,1.456,-0.065,0.697,0.516
1614,-11.779,-1.676,1.427,-0.017,0.699,0.529
1615,-11.712,-1.614,1.389,0.029,0.695,0.541
1616,-11.626,-1.518,1.336,0.085,0.683,0.551
1617,-11.554,-1.441,1.293,0.122,0.667,0.558
1618,-11.473,-1.355,1.255,0.156,0.647,0.562
1619,-11.368,-1.25,1.207,0.193,0.613,0.563
1620,-11.281,-1.168,1.159,0.215,0.585,0.562
1621,-11.19,-1.077,1.116,0.231,0.553,0.558
1622,-11.056,-0.967,1.063,0.245,0.509,0.55
1623,-10.961,-0.876,1.025,0.251,0.474,0.541
1624,-10.86,-0.8,0.977,0.25,0.439,0.531
1625,-10.716,-0.685,0.943,0.241,0.392,0.514
1626,-10.606,-0.603,0.9,0.23,0.359,0.499
1627,-10.491,-0.536,0.862,0.212,0.328,0.483
1628,-10.343,-0.464,0.814,0.182,0.29,0.459
1629,-10.228,-0.417,0.785,0.154,0.264,0.441
1630,-10.123,-0.369,0.766,0.122,0.243,0.419
1631,-9.979,-0.316,0.737,0.074,0.22,0.39
1632,-9.869,-0.292,0.709,0.033,0.206,0.368
1633,-9.768,-0.273,0.69,-0.01,0.195,0.345
1634,-9.639,-0.254,0.68,-0.074,0.188,0.313
1635,-9.543,-0.249,0.68,-0.124,0.186,0.29
1636,-9.452,-0.254,0.69,-0.176,0.187,0.266
1637,-9.347,-0.268,0.69,-0.248,0.192,0.235
1638,-9.275,-0.292,0.709,-0.304,0.198,0.213
1639,-9.199,-0.321,0.723,-0.379,0.208,0.185
1640,-9.146,-0.359,0.737,-0.434,0.215,0.165
1641,-9.093,-0.402,0.761,-0.489,0.222,0.146
1642,-9.041,-0.469,0.785,-0.56,0.229,0.123
1643,-9.007,-0.527,0.819,-0.611,0.233,0.108
1644,-8.973,-0.584,0.843,-0.66,0.235,0.094
1645,-8.94,-0.675,0.895,-0.72,0.235,0.078
1646,-8.916,-0.747,0.929,-0.762,0.233,0.068
1647,-8.897,-0.814,0.977,-0.8,0.228,0.06
1648,-8.873,-0.91,1.03,-0.844,0.219,0.052
1649,-8.844,-0.991,1.068,-0.872,0.211,0.048
1650,-8.815,-1.077,1.111,-0.896,0.2,0.045
1651,-8.787,-1.183,1.164,-0.922,0.183,0.043
1652,-8.748,-1.269,1.202,-0.936,0.168,0.042
1653,-8.705,-1.374,1.259,-0.948,0.147,0.043
1654,-8.662,-1.451,1.293,-0.953,0.13,0.043
1655,-8.614,-1.532,1.331,-0.954,0.112,0.045
1656,-8.552,-1.633,1.384,-0.949,0.087,0.047
1657,-8.495,-1.7,1.403,-0.942,0.069,0.05
1658,-8.437,-1.762,1.427,-0.932,0.051,0.053
1659,-8.351,-1.834,1.446,-0.914,0.028,0.057
1660,-8.289,-1.877,1.465,-0.896,0.012,0.062
1661,-8.222,-1.925,1.494,-0.876,-0.002,0.065
1662,-8.131,-1.978,1.523,-0.846,-0.017,0.072
1663,-8.064,-2.011,1.542,-0.82,-0.027,0.077
1664,-7.757,-2.121,1.614,-0.681,-0.037,0.094
1665,-7.7,-2.131,1.623,-0.649,-0.032,0.097
1666,-7.647,-2.145,1.642,-0.617,-0.025,0.1
1667,-7.561,-2.15,1.652,-0.575,-0.013,0.105
1668,-7.513,-2.15,1.647,-0.544,-0.002,0.108
1669,-7.456,-2.136,1.633,-0.502,0.016,0.112
1670,-7.408,-2.126,1.623,-0.471,0.031,0.116
1671,-7.365,-2.116,1.614,-0.441,0.048,0.12
1672,-7.321,-2.102,1.623,-0.401,0.071,0.125
1673,-7.288,-2.088,1.623,-0.372,0.088,0.128
1674,-7.264,-2.088,1.618,-0.345,0.104,0.132
1675,-7.23,-2.083,1.595,-0.312,0.126,0.135
1676,-7.211,-2.078,1.571,-0.289,0.143,0.136
1677,-7.197,-2.078,1.561,-0.268,0.16,0.137
1678,-7.192,-2.078,1.561,-0.244,0.182,0.138
1679,-7.197,-2.078,1.551,-0.228,0.199,0.137
1680,-7.207,-2.083,1.542,-0.213,0.216,0.136
1681,-7.216,-2.083,1.528,-0.196,0.239,0.133
1682,-7.226,-2.073,1.508,-0.185,0.255,0.131
1683,-7.254,-2.069,1.489,-0.17,0.277,0.128
1684,-7.269,-2.059,1.475,-0.16,0.293,0.125
1685,-7.288,-2.045,1.46,-0.152,0.308,0.123
1686,-7.321,-2.025,1.437,-0.139,0.327,0.122
1687,-7.35,-2.011,1.422,-0.13,0.341,0.121
1688,-7.393,-2.002,1.408,-0.121,0.353,0.121
1689,-7.441,-1.992,1.403,-0.108,0.366,0.12
1690,-7.465,-1.978,1.389,-0.096,0.373,0.12
1691,-7.494,-1.963,1.379,-0.084,0.378,0.118
1692,-7.518,-1.935,1.355,-0.069,0.381,0.118
1693,-7.527,-1.906,1.326,-0.057,0.379,0.117
1694,-7.532,-1.887,1.298,-0.044,0.375,0.116
1695,-7.537,-1.844,1.269,-0.027,0.365,0.115
1696,-7.527,-1.805,1.245,-0.015,0.355,0.114
1697,-7.518,-1.743,1.207,0.001,0.336,0.112
1698,-7.503,-1.695,1.173,0.012,0.319,0.11
1699,-7.489,-1.642,1.144,0.02,0.298,0.106
1700,-7.47,-1.575,1.101,0.028,0.268,0.1
1701,-7.446,-1.528,1.058,0.031,0.244,0.094
1702,-7.432,-1.484,1.02,0.03,0.22,0.085
1703,-7.427,-1.417,0.977,0.023,0.188,0.072
1704,-7.422,-1.365,0.934,0.013,0.166,0.06
1705,-7.427,-1.322,0.895,-0.002,0.148,0.045
1706,-7.446,-1.283,0.848,-0.029,0.13,0.024
1707,-7.47,-1.255,0.804,-0.054,0.122,0.007
1708,-7.513,-1.235,0.761,-0.083,0.12,-0.012
1709,-7.594,-1.211,0.699,-0.127,0.127,-0.039
1710,-7.676,-1.197,0.666,-0.164,0.139,-0.059
1711,-7.767,-1.188,0.637,-0.203,0.157,-0.079
1712,-7.92,-1.183,0.594,-0.258,0.191,-0.107
1713,-8.054,-1.192,0.565,-0.301,0.223,-0.128
1714,-8.27,-1.216,0.532,-0.36,0.272,-0.154
1715,-8.447,-1.231,0.512,-0.405,0.313,-0.173
1716,-8.643,-1.259,0.484,-0.45,0.356,-0.192
1717,-8.93,-1.302,0.431,-0.508,0.416,-0.215
1718,-9.165,-1.346,0.397,-0.55,0.463,-0.23
1719,-9.424,-1.369,0.359,-0.592,0.507,-0.243
1720,-9.773,-1.403,0.302,-0.643,0.563,-0.257
1721,-10.041,-1.422,0.259,-0.678,0.6,-0.264
1722,-10.396,-1.441,0.22,-0.721,0.637,-0.268
1723,-10.649,-1.437,0.196,-0.749,0.654,-0.266
1724,-10.889,-1.432,0.177,-0.772,0.658,-0.262
1725,-11.186,-1.403,0.163,-0.798,0.641,-0.251
1726,-11.746,-1.322,0.101,-0.824,0.402,-0.197
1727,-11.784,-1.302,0.105,-0.818,0.27,-0.182
1728,-11.789,-1.283,0.11,-0.809,0.156,-0.172
1729,-11.756,-1.269,0.11,-0.798,0.032,-0.165
1730,-11.674,-1.24,0.124,-0.781,-0.143,-0.159
1731,-11.578,-1.231,0.129,-0.768,-0.276,-0.157
1732,-11.439,-1.211,0.105,-0.748,-0.447,-0.159
1733,-11.31,-1.197,0.101,-0.733,-0.567,-0.164
1734,-11.171,-1.188,0.091,-0.719,-0.674,-0.17
1735,-10.989,-1.178,0.062,-0.701,-0.794,-0.182
1736,-10.846,-1.173,0.034,-0.689,-0.862,-0.194
1737,-10.673,-1.188,0.014,-0.674,-0.923,-0.212
1738,-10.554,-1.207,0.01,-0.664,-0.943,-0.226
1739,-10.448,-1.221,-0.01,-0.654,-0.943,-0.243
1740,-10.333,-1.25,-0.014,-0.642,-0.911,-0.267
1741,-10.266,-1.279,-0.019,-0.632,-0.866,-0.285
1742,-10.233,-1.307,-0.029,-0.62,-0.78,-0.31
1743,-10.238,-1.322,-0.034,-0.61,-0.7,-0.328
1744,-10.271,-1.341,-0.053,-0.6,-0.611,-0.346
1745,-10.381,-1.36,-0.067,-0.588,-0.482,-0.367
1746,-10.506,-1.365,-0.086,-0.578,-0.382,-0.381
1747,-10.721,-1.369,-0.091,-0.566,-0.249,-0.396
1748,-10.913,-1.365,-0.12,-0.557,-0.153,-0.406
1749,-11.119,-1.355,-0.139,-0.55,-0.061,-0.413
1750,-12.287,-1.298,-0.302,-0.537,0.236,-0.421
1751,-12.541,-1.279,-0.326,-0.539,0.261,-0.418
1752,-12.857,-1.25,-0.359,-0.546,0.269,-0.41
1753,-13.068,-1.221,-0.369,-0.553,0.254,-0.403
1754,-13.312,-1.188,-0.402,-0.566,0.206,-0.391
1755,-13.46,-1.168,-0.45,-0.578,0.152,-0.38
1756,-13.575,-1.144,-0.484,-0.59,0.084,-0.368
1757,-13.676,-1.111,-0.484,-0.607,-0.03,-0.352
1758,-13.7,-1.077,-0.479,-0.619,-0.133,-0.341
1759,-13.666,-1.058,-0.455,-0.633,-0.29,-0.329
1760,-13.599,-1.039,-0.426,-0.643,-0.42,-0.321
1761,-13.494,-1.02,-0.393,-0.651,-0.556,-0.316
1762,-13.302,-1.006,-0.35,-0.66,-0.741,-0.313
1763,-13.12,-0.996,-0.316,-0.664,-0.88,-0.315
1764,-12.833,-0.977,-0.254,-0.667,-1.059,-0.321
1765,-12.584,-0.967,-0.206,-0.668,-1.185,-0.33
1766,-12.311,-0.948,-0.158,-0.667,-1.293,-0.339
1767,-11.928,-0.939,-0.077,-0.664,-1.423,-0.354
1768,-11.621,-0.934,-0.014,-0.659,-1.504,-0.368
1769,-11.205,-0.939,0.072,-0.65,-1.586,-0.388
1770,-10.889,-0.943,0.134,-0.643,-1.629,-0.404
1771,-10.578,-0.953,0.211,-0.634,-1.65,-0.422
1772,-10.18,-0.967,0.302,-0.62,-1.663,-0.448
1773,-8.983,-1.039,0.575,-0.564,-1.505,-0.533
1774,-8.681,-1.082,0.627,-0.545,-1.4,-0.556
1775,-8.49,-1.116,0.68,-0.53,-1.309,-0.57
1776,-8.265,-1.159,0.728,-0.51,-1.175,-0.588
1777,-8.14,-1.197,0.766,-0.494,-1.067,-0.598
1778,-8.045,-1.231,0.79,-0.479,-0.955,-0.604
1779,-7.968,-1.274,0.824,-0.458,-0.805,-0.609
1780,-7.944,-1.307,0.848,-0.442,-0.694,-0.61
1781,-7.958,-1.365,0.867,-0.42,-0.551,-0.607
1782,-7.997,-1.403,0.9,-0.403,-0.451,-0.601
1783,-8.068,-1.432,0.924,-0.385,-0.36,-0.594
1784,-8.183,-1.46,0.943,-0.361,-0.254,-0.579
1785,-8.289,-1.475,0.953,-0.343,-0.188,-0.565
1786,-8.394,-1.494,0.967,-0.325,-0.134,-0.547
1787,-8.543,-1.518,1.006,-0.3,-0.081,-0.521
1788,-8.662,-1.532,1.006,-0.282,-0.056,-0.499
1789,-8.806,-1.547,1.01,-0.257,-0.041,-0.467
1790,-8.911,-1.561,1.006,-0.24,-0.043,-0.441
1791,-9.007,-1.571,1.006,-0.222,-0.056,-0.415
1792,-9.103,-1.59,0.972,-0.199,-0.086,-0.379
1793,-9.146,-1.595,0.948,-0.183,-0.116,-0.353
1794,-9.189,-1.599,0.924,-0.164,-0.164,-0.319
1795,-9.203,-1.599,0.91,-0.15,-0.205,-0.293
1796,-9.189,-1.595,0.9,-0.137,-0.251,-0.27
1797,-9.141,-1.575,0.891,-0.121,-0.315,-0.239
1798,-9.079,-1.566,0.876,-0.11,-0.363,-0.217
1799,-8.973,-1.551,0.867,-0.095,-0.426,-0.19
1800,-8.887,-1.537,0.871,-0.082,-0.471,-0.173
1801,-8.782,-1.513,0.871,-0.069,-0.514,-0.157
1802,-8.629,-1.48,0.876,-0.051,-0.566,-0.139
1803,-8.509,-1.456,0.881,-0.036,-0.599,-0.128
1804,-8.389,-1.422,0.871,-0.021,-0.626,-0.119
1805,-8.212,-1.365,0.876,0.001,-0.653,-0.11
1806,-8.073,-1.317,0.886,0.016,-0.665,-0.103
1807,-7.489,-1.154,0.862,0.076,-0.628,-0.085
1808,-7.374,-1.111,0.852,0.085,-0.604,-0.084
1809,-7.245,-1.068,0.843,0.094,-0.563,-0.084
1810,-7.163,-1.034,0.833,0.098,-0.529,-0.083
1811,-7.087,-1.006,0.828,0.101,-0.494,-0.082
1812,-7.001,-0.972,0.819,0.101,-0.444,-0.081
1813,-6.953,-0.953,0.809,0.1,-0.406,-0.082
1814,-6.919,-0.919,0.804,0.095,-0.369,-0.082
1815,-6.895,-0.881,0.8,0.085,-0.322,-0.083
1816,-6.905,-0.848,0.795,0.076,-0.288,-0.084
1817,-6.924,-0.819,0.771,0.06,-0.247,-0.086
1818,-6.953,-0.79,0.752,0.046,-0.218,-0.087
1819,-6.986,-0.766,0.747,0.029,-0.192,-0.087
1820,-7.039,-0.733,0.733,0.003,-0.161,-0.088
1821,-7.087,-0.709,0.718,-0.019,-0.141,-0.087
1822,-7.149,-0.69,0.704,-0.044,-0.125,-0.086
1823,-7.221,-0.67,0.685,-0.079,-0.108,-0.084
1824,-7.278,-0.666,0.675,-0.107,-0.099,-0.084
1825,-7.345,-0.646,0.661,-0.147,-0.091,-0.082
1826,-7.408,-0.637,0.646,-0.177,-0.089,-0.08
1827,-7.456,-0.632,0.651,-0.207,-0.09,-0.078
1828,-7.513,-0.622,0.646,-0.248,-0.097,-0.075
1829,-7.547,-0.618,0.646,-0.279,-0.106,-0.072
1830,-7.599,-0.622,0.642,-0.319,-0.122,-0.068
1831,-7.623,-0.632,0.637,-0.349,-0.136,-0.064
1832,-7.647,-0.642,0.642,-0.377,-0.152,-0.06
1833,-7.671,-0.661,0.632,-0.416,-0.176,-0.054
1834,-7.671,-0.675,0.642,-0.444,-0.194,-0.05
1835,-7.676,-0.694,0.637,-0.472,-0.211,-0.046
1836,-7.685,-0.723,0.632,-0.51,-0.231,-0.041
1837,-7.69,-0.747,0.622,-0.538,-0.244,-0.038
1838,-7.7,-0.785,0.632,-0.576,-0.256,-0.035
1839,-7.709,-0.814,0.642,-0.604,-0.262,-0.033
1840,-7.724,-0.843,0.651,-0.632,-0.263,-0.032
1841,-7.762,-0.905,0.656,-0.67,-0.257,-0.031
1842,-7.791,-0.948,0.661,-0.698,-0.248,-0.03
1843,-7.843,-1.01,0.675,-0.736,-0.23,-0.031
1844,-7.896,-1.053,0.685,-0.764,-0.21,-0.032
1845,-8.207,-1.255,0.795,-0.887,-0.078,-0.031
1846,-8.294,-1.298,0.824,-0.911,-0.046,-0.029
1847,-8.38,-1.341,0.857,-0.932,-0.013,-0.025
1848,-8.499,-1.398,0.886,-0.957,0.027,-0.018
1849,-8.586,-1.437,0.915,-0.974,0.055,-0.013
1850,-8.672,-1.475,0.943,-0.989,0.078,-0.005
1851,-8.801,-1.532,0.967,-1.006,0.104,0.005
1852,-8.897,-1.575,0.991,-1.015,0.117,0.013
1853,-8.997,-1.633,1.02,-1.026,0.128,0.027
1854,-9.084,-1.676,1.049,-1.033,0.132,0.038
1855,-9.17,-1.714,1.058,-1.038,0.132,0.049
1856,-9.275,-1.767,1.058,-1.043,0.128,0.066
1857,-9.352,-1.8,1.073,-1.046,0.124,0.079
1858,-9.433,-1.834,1.077,-1.047,0.119,0.094
1859,-9.534,-1.877,1.087,-1.048,0.115,0.114
1860,-9.601,-1.906,1.101,-1.047,0.113,0.131
1861,-9.658,-1.935,1.097,-1.045,0.114,0.148
1862,-9.74,-1.963,1.092,-1.041,0.122,0.172
1863,-9.797,-1.987,1.077,-1.035,0.132,0.19
1864,-9.845,-2.002,1.082,-1.029,0.145,0.208
1865,-9.893,-2.025,1.087,-1.017,0.167,0.234
1866,-9.936,-2.045,1.077,-1.005,0.186,0.253
1867,-9.993,-2.059,1.077,-0.986,0.214,0.278
1868,-10.032,-2.064,1.073,-0.97,0.235,0.296
1869,-10.056,-2.064,1.073,-0.95,0.256,0.314
1870,-10.084,-2.045,1.068,-0.919,0.281,0.337
1871,-10.099,-2.025,1.073,-0.893,0.295,0.354
1872,-10.104,-1.992,1.082,-0.865,0.305,0.371
1873,-10.104,-1.939,1.092,-0.823,0.311,0.392
1874,-10.08,-1.891,1.097,-0.79,0.309,0.406
1875,-10.056,-1.844,1.082,-0.755,0.301,0.42
1876,-10.017,-1.762,1.082,-0.708,0.282,0.436
1877,-9.974,-1.69,1.077,-0.673,0.261,0.447
1878,-9.936,-1.614,1.068,-0.638,0.237,0.456
1879,-9.874,-1.513,1.049,-0.593,0.2,0.464
1880,-9.811,-1.432,1.034,-0.562,0.169,0.467
1881,-9.744,-1.346,1.02,-0.533,0.139,0.468
1882,-9.663,-1.245,0.996,-0.499,0.099,0.465
1883,-9.596,-1.168,0.982,-0.478,0.072,0.46
1884,-9.505,-1.068,0.953,-0.454,0.039,0.45
1885,-9.433,-0.991,0.939,-0.44,0.018,0.439
1886,-9.361,-0.924,0.919,-0.43,0.003,0.426
1887,-9.275,-0.848,0.886,-0.421,-0.009,0.407
1888,-9.213,-0.785,0.871,-0.419,-0.011,0.391
1889,-9.16,-0.728,0.852,-0.42,-0.007,0.373
1890,-9.112,-0.656,0.814,-0.424,0.008,0.348
1891,-9.084,-0.613,0.79,-0.432,0.027,0.328
1892,-9.06,-0.575,0.761,-0.442,0.051,0.308
1893,-9.06,-0.536,0.718,-0.459,0.092,0.281
1894,-9.069,-0.512,0.709,-0.475,0.127,0.261
1895,-9.127,-0.498,0.67,-0.499,0.181,0.236
1896,-9.194,-0.498,0.637,-0.519,0.224,0.217
1897,-9.275,-0.508,0.603,-0.541,0.269,0.198
1898,-9.404,-0.532,0.575,-0.571,0.331,0.175
1899,-9.519,-0.555,0.555,-0.595,0.377,0.159
1900,-9.644,-0.57,0.527,-0.619,0.421,0.144
1901,-9.835,-0.613,0.503,-0.651,0.475,0.126
1902,-9.993,-0.651,0.479,-0.675,0.511,0.114
1903,-10.156,-0.68,0.45,-0.699,0.541,0.103
1904,-10.381,-0.723,0.426,-0.729,0.575,0.091
1905,-11.109,-0.867,0.373,-0.814,0.614,0.076
1906,-11.305,-0.919,0.378,-0.836,0.6,0.078
1907,-11.449,-0.953,0.378,-0.851,0.582,0.081
1908,-11.574,-0.977,0.373,-0.865,0.558,0.087
1909,-11.727,-1.015,0.388,-0.88,0.517,0.097
1910,-11.832,-1.034,0.397,-0.891,0.481,0.105
1911,-11.923,-1.058,0.421,-0.9,0.44,0.115
1912,-12.019,-1.092,0.445,-0.908,0.381,0.128
1913,-12.076,-1.116,0.464,-0.912,0.333,0.136
1914,-12.119,-1.135,0.503,-0.915,0.285,0.145
1915,-12.139,-1.154,0.541,-0.914,0.22,0.155
1916,-12.134,-1.173,0.57,-0.911,0.172,0.161
1917,-12.086,-1.197,0.622,-0.904,0.112,0.168
1918,-12.033,-1.216,0.666,-0.897,0.068,0.172
1919,-11.961,-1.235,0.694,-0.887,0.026,0.176
1920,-11.847,-1.25,0.747,-0.871,-0.023,0.179
1921,-11.751,-1.259,0.795,-0.857,-0.057,0.18
1922,-11.641,-1.279,0.838,-0.842,-0.089,0.181
1923,-11.483,-1.288,0.881,-0.818,-0.125,0.181
1924,-11.353,-1.302,0.915,-0.797,-0.149,0.179
1925,-11.167,-1.307,0.953,-0.769,-0.177,0.177
1926,-11.023,-1.312,0.996,-0.745,-0.193,0.175
1927,-10.889,-1.312,1.03,-0.72,-0.206,0.172
1928,-10.707,-1.317,1.068,-0.684,-0.217,0.169
1929,-10.573,-1.317,1.087,-0.657,-0.222,0.166
1930,-10.444,-1.312,1.106,-0.629,-0.222,0.164
1931,-10.262,-1.307,1.13,-0.591,-0.218,0.16
1932,-10.132,-1.307,1.14,-0.561,-0.211,0.156
1933,-9.998,-1.302,1.149,-0.532,-0.2,0.153
1934,-9.84,-1.302,1.149,-0.493,-0.182,0.151
1935,-9.73,-1.298,1.144,-0.465,-0.165,0.149
1936,-9.591,-1.288,1.125,-0.428,-0.14,0.147
1937,-9.495,-1.279,1.12,-0.402,-0.119,0.146
1938,-9.409,-1.269,1.116,-0.377,-0.096,0.146
1939,-9.309,-1.259,1.101,-0.343,-0.065,0.147
1940,-9.237,-1.245,1.082,-0.32,-0.041,0.148
1941,-9.17,-1.231,1.073,-0.299,-0.017,0.151
1942,-9.112,-1.216,1.063,-0.271,0.015,0.154
1943,-9.069,-1.197,1.053,-0.25,0.037,0.157
1944,-9.031,-1.178,1.044,-0.225,0.065,0.163
1945,-9.007,-1.164,1.039,-0.209,0.083,0.167
1946,-8.978,-1.101,0.977,-0.152,0.138,0.185
1947,-8.983,-1.073,0.948,-0.141,0.147,0.191
1948,-8.988,-1.044,0.939,-0.135,0.15,0.195
1949,-8.983,-1.02,0.919,-0.131,0.151,0.202
1950,-8.983,-1.001,0.915,-0.13,0.149,0.206
1951,-8.983,-0.986,0.91,-0.131,0.145,0.211
1952,-8.973,-0.962,0.91,-0.135,0.137,0.215
1953,-8.973,-0.948,0.924,-0.14,0.129,0.219
1954,-8.959,-0.934,0.929,-0.147,0.119,0.222
1955,-8.94,-0.919,0.939,-0.157,0.105,0.226
1956,-8.93,-0.919,0.939,-0.166,0.093,0.227
1957,-8.911,-0.915,0.943,-0.176,0.079,0.227
1958,-8.892,-0.91,0.943,-0.19,0.061,0.226
1959,-8.868,-0.905,0.953,-0.202,0.048,0.225
1960,-8.839,-0.9,0.953,-0.213,0.036,0.221
1961,-8.801,-0.9,0.967,-0.228,0.02,0.216
1962,-8.777,-0.905,0.962,-0.24,0.009,0.211
1963,-8.739,-0.919,0.977,-0.255,-0.004,0.204
1964,-8.705,-0.919,0.962,-0.265,-0.012,0.197
1965,-8.677,-0.924,0.958,-0.276,-0.018,0.19
1966,-8.633,-0.943,0.948,-0.29,-0.025,0.179
1967,-8.605,-0.948,0.948,-0.299,-0.03,0.171
1968,-8.566,-0.953,0.948,-0.306,-0.034,0.161
1969,-8.528,-0.958,0.962,-0.315,-0.041,0.149
1970,-8.499,-0.948,0.962,-0.32,-0.045,0.141
1971,-8.466,-0.934,0.962,-0.325,-0.051,0.133
1972,-8.423,-0.924,0.977,-0.331,-0.058,0.123
1973,-8.384,-0.91,0.962,-0.336,-0.064,0.118
1974,-8.327,-0.895,0.958,-0.342,-0.07,0.113
1975,-8.284,-0.891,0.943,-0.346,-0.075,0.11
1976,-8.246,-0.881,0.943,-0.35,-0.079,0.108
1977,-8.193,-0.886,0.953,-0.355,-0.084,0.107
1978,-8.155,-0.886,0.953,-0.358,-0.089,0.106
1979,-8.112,-0.9,0.958,-0.36,-0.092,0.105
1980,-8.059,-0.919,0.967,-0.363,-0.096,0.102
1981,-8.025,-0.934,0.972,-0.365,-0.1,0.098
1982,-7.973,-0.948,0.996,-0.364,-0.104,0.09
1983,-7.939,-0.958,1.01,-0.362,-0.106,0.083
1984,-7.906,-0.962,1.02,-0.36,-0.109,0.076
1985,-7.863,-0.972,1.025,-0.356,-0.112,0.066
1986,-7.843,-0.986,1.039,-0.351,-0.113,0.058
1987,-7.81,-0.996,1.053,-0.347,-0.113,0.05
1988,-7.767,-1.006,1.063,-0.341,-0.112,0.041
1989,-7.733,-1.015,1.068,-0.337,-0.11,0.035
1990,-7.705,-1.03,1.063,-0.332,-0.106,0.027
1991,-7.685,-1.044,1.058,-0.328,-0.1,0.023
1992,-7.666,-1.058,1.073,-0.325,-0.094,0.019
1993,-7.638,-1.073,1.087,-0.32,-0.084,0.016
1994,-7.623,-1.092,1.097,-0.316,-0.075,0.013
1995,-7.604,-1.106,1.101,-0.312,-0.067,0.01
1996,-7.58,-1.135,1.13,-0.304,-0.055,0.008
1997,-7.561,-1.149,1.144,-0.298,-0.047,0.006
1998,-7.547,-1.168,1.168,-0.29,-0.04,0.003
1999,-7.46,-1.24,1.221,-0.242,-0.024,-0.004
2000,-7.441,-1.269,1.231,-0.23,-0.023,-0.007
2001,-7.427,-1.288,1.24,-0.214,-0.023,-0.01
2002,-7.417,-1.312,1.245,-0.202,-0.023,-0.013
2003,-7.417,-1.341,1.264,-0.187,-0.02,-0.018
2004,-7.436,-1.36,1.269,-0.176,-0.015,-0.022
2005,-7.451,-1.389,1.264,-0.166,-0.008,-0.026
2006,-7.494,-1.432,1.255,-0.153,0.007,-0.032
2007,-7.542,-1.465,1.245,-0.145,0.023,-0.038
2008,-7.618,-1.513,1.235,-0.136,0.051,-0.046
2009,-7.69,-1.556,1.231,-0.13,0.077,-0.052
2010,-7.781,-1.599,1.216,-0.126,0.108,-0.058
2011,-7.915,-1.647,1.197,-0.122,0.157,-0.066
2012,-8.04,-1.686,1.173,-0.122,0.199,-0.071
2013,-8.179,-1.724,1.149,-0.123,0.245,-0.076
2014,-8.384,-1.781,1.125,-0.126,0.312,-0.081
2015,-8.566,-1.82,1.101,-0.13,0.367,-0.083
2016,-8.825,-1.863,1.058,-0.139,0.441,-0.084
2017,-9.031,-1.896,1.02,-0.147,0.498,-0.083
2018,-9.251,-1.925,0.982,-0.155,0.554,-0.079
2019,-9.553,-1.944,0.943,-0.167,0.626,-0.072
2020,-9.787,-1.954,0.91,-0.176,0.675,-0.063
2021,-10.017,-1.978,0.867,-0.185,0.718,-0.052
2022,-10.305,-1.978,0.819,-0.194,0.763,-0.034
2023,-10.511,-1.978,0.804,-0.199,0.785,-0.018
2024,-10.75,-1.968,0.723,-0.203,0.798,0.005
2025,-10.898,-1.958,0.699,-0.203,0.795,0.024
2026,-11.028,-1.93,0.675,-0.199,0.778,0.042
2027,-11.152,-1.906,0.642,-0.192,0.733,0.067
2028,-11.224,-1.887,0.627,-0.184,0.684,0.085
2029,-11.267,-1.853,0.627,-0.173,0.621,0.102
2030,-11.281,-1.829,0.613,-0.155,0.518,0.121
2031,-11.258,-1.8,0.599,-0.141,0.429,0.133
2032,-11.205,-1.772,0.599,-0.126,0.333,0.144
2033,-11.109,-1.729,0.594,-0.106,0.199,0.153
2034,-11.023,-1.7,0.589,-0.091,0.098,0.156
2035,-10.918,-1.666,0.579,-0.077,-0.0,0.157
2036,-10.74,-1.618,0.546,-0.061,-0.12,0.155
2037,-10.597,-1.575,0.536,-0.05,-0.199,0.151
2038,-10.391,-1.528,0.517,-0.036,-0.285,0.143
2039,-9.697,-1.417,0.508,0.002,-0.383,0.093
2040,-9.5,-1.408,0.503,0.013,-0.355,0.071
2041,-9.376,-1.413,0.498,0.021,-0.317,0.052
2042,-9.27,-1.417,0.493,0.031,-0.266,0.031
2043,-9.16,-1.427,0.484,0.044,-0.182,0.001
2044,-9.117,-1.437,0.479,0.054,-0.108,-0.023
2045,-9.103,-1.451,0.464,0.064,-0.028,-0.048
2046,-9.146,-1.47,0.436,0.077,0.087,-0.081
2047,-9.218,-1.48,0.407,0.087,0.175,-0.106
2048,-9.323,-1.489,0.388,0.095,0.263,-0.128
2049,-9.5,-1.48,0.359,0.106,0.378,-0.156
2050,-9.653,-1.47,0.316,0.114,0.458,-0.173
2051,-9.831,-1.465,0.283,0.12,0.532,-0.187
2052,-10.094,-1.465,0.239,0.127,0.615,-0.2
2053,-10.3,-1.456,0.215,0.132,0.664,-0.206
2054,-10.578,-1.446,0.115,0.139,0.713,-0.211
2055,-10.788,-1.441,0.086,0.143,0.737,-0.211
2056,-10.989,-1.437,0.029,0.147,0.747,-0.209
2057,-11.248,-1.417,-0.034,0.154,0.741,-0.205
2058,-11.42,-1.413,-0.067,0.158,0.72,-0.202
2059,-11.583,-1.403,-0.101,0.163,0.684,-0.197
2060,-11.77,-1.379,-0.158,0.169,0.616,-0.191
2061,-11.89,-1.35,-0.192,0.175,0.552,-0.186
2062,-11.981,-1.317,-0.22,0.178,0.476,-0.181
2063,-12.052,-1.259,-0.263,0.182,0.36,-0.172
2064,-12.081,-1.216,-0.302,0.183,0.265,-0.165
2065,-12.062,-1.144,-0.335,0.181,0.132,-0.154
2066,-12.028,-1.097,-0.364,0.177,0.03,-0.147
2067,-11.961,-1.058,-0.378,0.17,-0.071,-0.139
2068,-11.842,-1.01,-0.397,0.157,-0.201,-0.13
2069,-11.732,-0.982,-0.407,0.145,-0.291,-0.126
2070,-11.559,-0.958,-0.393,0.126,-0.399,-0.122
2071,-11.42,-0.948,-0.373,0.11,-0.47,-0.123
2072,-11.272,-0.934,-0.354,0.094,-0.531,-0.127
2073,-11.056,-0.924,-0.321,0.072,-0.594,-0.137
2074,-10.898,-0.924,-0.287,0.055,-0.628,-0.149
2075,-10.745,-0.924,-0.254,0.04,-0.653,-0.163
2076,-10.539,-0.924,-0.206,0.022,-0.668,-0.188
2077,-9.993,-0.934,-0.014,-0.022,-0.619,-0.301
2078,-9.864,-0.934,0.034,-0.031,-0.581,-0.34
2079,-9.778,-0.929,0.062,-0.037,-0.549,-0.368
2080,-9.697,-0.919,0.124,-0.046,-0.501,-0.405
2081,-9.653,-0.919,0.158,-0.052,-0.462,-0.43
2082,-9.629,-0.924,0.182,-0.06,-0.424,-0.453
2083,-9.61,-0.924,0.211,-0.071,-0.373,-0.479
2084,-9.61,-0.939,0.239,-0.079,-0.336,-0.497
2085,-9.625,-0.962,0.268,-0.089,-0.29,-0.517
2086,-9.639,-0.982,0.287,-0.098,-0.26,-0.529
2087,-9.663,-1.006,0.321,-0.104,-0.235,-0.54
2088,-9.692,-1.039,0.34,-0.112,-0.208,-0.552
2089,-9.716,-1.068,0.354,-0.116,-0.194,-0.559
2090,-9.749,-1.097,0.373,-0.119,-0.184,-0.567
2091,-9.768,-1.12,0.388,-0.118,-0.183,-0.571
2092,-9.792,-1.14,0.393,-0.116,-0.187,-0.575
2093,-9.802,-1.164,0.407,-0.11,-0.199,-0.578
2094,-9.807,-1.188,0.426,-0.104,-0.213,-0.577
2095,-9.802,-1.211,0.436,-0.095,-0.231,-0.576
2096,-9.792,-1.24,0.445,-0.08,-0.257,-0.573
2097,-9.773,-1.25,0.455,-0.069,-0.28,-0.57
2098,-9.74,-1.283,0.45,-0.051,-0.31,-0.563
2099,-9.711,-1.302,0.445,-0.035,-0.332,-0.558
2100,-9.673,-1.326,0.455,-0.019,-0.354,-0.553
2101,-9.62,-1.35,0.464,0.004,-0.381,-0.545
2102,-9.562,-1.379,0.46,0.023,-0.398,-0.539
2103,-9.5,-1.403,0.464,0.05,-0.418,-0.533
2104,-9.452,-1.422,0.469,0.071,-0.43,-0.528
2105,-9.395,-1.441,0.469,0.093,-0.439,-0.525
2106,-9.328,-1.47,0.479,0.123,-0.446,-0.521
2107,-9.28,-1.484,0.479,0.146,-0.448,-0.519
2108,-9.232,-1.489,0.474,0.171,-0.447,-0.519
2109,-9.16,-1.494,0.493,0.203,-0.442,-0.518
2110,-9.122,-1.499,0.508,0.226,-0.435,-0.516
2111,-9.074,-1.499,0.512,0.258,-0.424,-0.515
2112,-9.045,-1.494,0.517,0.281,-0.413,-0.513
2113,-9.026,-1.484,0.527,0.303,-0.402,-0.51
2114,-8.978,-1.427,0.512,0.392,-0.349,-0.49
2115,-8.969,-1.398,0.512,0.407,-0.341,-0.483
2116,-8.95,-1.374,0.512,0.426,-0.333,-0.474
2117,-8.94,-1.346,0.517,0.439,-0.329,-0.466
2118,-8.93,-1.326,0.522,0.45,-0.328,-0.458
2119,-8.921,-1.288,0.517,0.463,-0.329,-0.445
2120,-8.911,-1.269,0.503,0.471,-0.332,-0.436
2121,-8.906,-1.245,0.512,0.477,-0.335,-0.427
2122,-8.892,-1.211,0.517,0.483,-0.342,-0.414
2123,-8.887,-1.192,0.512,0.485,-0.348,-0.405
2124,-8.873,-1.173,0.508,0.485,-0.356,-0.393
2125,-8.854,-1.149,0.498,0.483,-0.361,-0.385
2126,-8.844,-1.13,0.493,0.479,-0.365,-0.378
2127,-8.83,-1.106,0.479,0.472,-0.37,-0.368
2128,-8.815,-1.087,0.464,0.466,-0.372,-0.361
2129,-8.796,-1.073,0.469,0.457,-0.372,-0.355
2130,-8.777,-1.049,0.464,0.444,-0.37,-0.347
2131,-8.758,-1.039,0.46,0.432,-0.367,-0.341
2132,-8.744,-1.02,0.455,0.416,-0.36,-0.334
2133,-8.729,-1.015,0.445,0.403,-0.353,-0.33
2134,-8.72,-1.01,0.464,0.39,-0.344,-0.325
2135,-8.71,-1.01,0.469,0.371,-0.33,-0.319
2136,-8.71,-1.01,0.469,0.358,-0.319,-0.317
2137,-8.705,-1.01,0.479,0.343,-0.307,-0.313
2138,-8.705,-1.01,0.488,0.325,-0.29,-0.309
2139,-8.705,-1.02,0.479,0.311,-0.278,-0.307
2140,-8.71,-1.02,0.488,0.293,-0.262,-0.303
2141,-8.71,-1.025,0.493,0.281,-0.25,-0.3
2142,-8.705,-1.03,0.498,0.268,-0.239,-0.297
2143,-8.705,-1.039,0.503,0.253,-0.227,-0.292
2144,-8.71,-1.044,0.508,0.244,-0.218,-0.288
2145,-8.71,-1.049,0.512,0.236,-0.212,-0.285
2146,-8.701,-1.053,0.527,0.225,-0.205,-0.28
2147,-8.701,-1.058,0.551,0.219,-0.203,-0.275
2148,-8.686,-1.063,0.579,0.215,-0.203,-0.27
2149,-8.672,-1.073,0.599,0.213,-0.204,-0.265
2150,-8.653,-1.077,0.608,0.212,-0.206,-0.26
2151,-8.629,-1.087,0.622,0.212,-0.211,-0.254
2152,-8.619,-1.101,0.637,0.215,-0.215,-0.25
2153,-8.6,-1.111,0.651,0.219,-0.219,-0.247
2154,-8.576,-1.12,0.661,0.226,-0.224,-0.241
2155,-8.547,-1.125,0.67,0.232,-0.226,-0.238
2156,-8.499,-1.14,0.68,0.242,-0.226,-0.234
2157,-8.475,-1.149,0.694,0.251,-0.224,-0.231
2158,-8.452,-1.154,0.704,0.259,-0.221,-0.227
2159,-8.413,-1.159,0.718,0.273,-0.214,-0.222
2160,-8.38,-1.168,0.728,0.284,-0.207,-0.218
2161,-8.246,-1.207,0.752,0.339,-0.161,-0.199
2162,-8.217,-1.207,0.766,0.351,-0.149,-0.195
2163,-8.203,-1.216,0.776,0.364,-0.137,-0.191
2164,-8.174,-1.226,0.785,0.382,-0.119,-0.186
2165,-8.159,-1.235,0.785,0.394,-0.105,-0.182
2166,-8.159,-1.245,0.795,0.406,-0.09,-0.178
2167,-8.15,-1.25,0.79,0.422,-0.069,-0.173
2168,-8.159,-1.259,0.79,0.434,-0.051,-0.17
2169,-8.169,-1.274,0.795,0.448,-0.027,-0.163
2170,-8.179,-1.283,0.79,0.457,-0.007,-0.158
2171,-8.198,-1.288,0.781,0.467,0.012,-0.153
2172,-8.236,-1.307,0.795,0.478,0.04,-0.145
2173,-8.265,-1.317,0.8,0.486,0.061,-0.137
2174,-8.303,-1.322,0.8,0.493,0.082,-0.129
2175,-8.361,-1.326,0.79,0.502,0.109,-0.117
2176,-8.408,-1.331,0.8,0.508,0.13,-0.106
2177,-8.456,-1.326,0.8,0.512,0.15,-0.093
2178,-8.533,-1.331,0.814,0.518,0.176,-0.075
2179,-8.595,-1.336,0.819,0.523,0.196,-0.06
2180,-8.677,-1.346,0.838,0.528,0.221,-0.039
2181,-8.739,-1.346,0.867,0.533,0.239,-0.022
2182,-8.792,-1.36,0.876,0.539,0.257,-0.006
2183,-8.868,-1.384,0.895,0.549,0.278,0.014
2184,-8.926,-1.403,0.924,0.558,0.292,0.028
2185,-8.969,-1.422,0.943,0.567,0.304,0.041
2186,-9.021,-1.437,0.972,0.584,0.315,0.055
2187,-9.055,-1.456,0.996,0.598,0.321,0.064
2188,-9.088,-1.47,1.015,0.613,0.323,0.071
2189,-9.131,-1.48,1.03,0.634,0.322,0.079
2190,-9.16,-1.48,1.039,0.649,0.317,0.083
2191,-9.194,-1.48,1.044,0.664,0.31,0.087
2192,-9.203,-1.499,1.044,0.683,0.298,0.091
2193,-9.213,-1.508,1.063,0.695,0.287,0.094
2194,-9.213,-1.508,1.073,0.706,0.276,0.097
2195,-9.203,-1.508,1.082,0.717,0.261,0.1
2196,-9.194,-1.513,1.097,0.722,0.25,0.104
2197,-9.175,-1.518,1.106,0.727,0.241,0.107
2198,-9.136,-1.528,1.125,0.73,0.232,0.112
2199,-9.112,-1.537,1.14,0.731,0.227,0.116
2200,-9.074,-1.547,1.159,0.73,0.225,0.12
2201,-9.026,-1.566,1.188,0.729,0.226,0.127
2202,-8.993,-1.575,1.197,0.728,0.231,0.132
2203,-8.954,-1.595,1.207,0.727,0.24,0.137
2204,-8.921,-1.628,1.211,0.726,0.256,0.143
2205,-8.897,-1.657,1.226,0.728,0.273,0.147
2206,-8.882,-1.686,1.216,0.728,0.293,0.151
2207,-8.859,-1.719,1.202,0.73,0.325,0.157
2208,-8.854,-1.733,1.183,0.734,0.352,0.16
2209,-8.863,-1.753,1.173,0.738,0.382,0.164
2210,-8.897,-1.767,1.149,0.744,0.424,0.169
2211,-8.935,-1.767,1.144,0.749,0.455,0.174
2212,-8.978,-1.757,1.14,0.756,0.485,0.178
2213,-9.055,-1.729,1.14,0.765,0.524,0.185
2214,-9.127,-1.705,1.144,0.772,0.548,0.191
2215,-9.199,-1.666,1.125,0.779,0.569,0.197
2216,-9.304,-1.614,1.116,0.787,0.59,0.206
2217,-9.385,-1.571,1.116,0.792,0.6,0.211
2218,-9.467,-1.528,1.12,0.794,0.604,0.217
2219,-9.586,-1.48,1.116,0.794,0.601,0.221
2220,-9.658,-1.432,1.101,0.792,0.592,0.223
2221,-9.74,-1.379,1.077,0.784,0.577,0.224
2222,-9.84,-1.317,1.077,0.77,0.55,0.222
2223,-9.888,-1.269,1.073,0.755,0.525,0.219
2224,-9.936,-1.226,1.068,0.736,0.497,0.214
2225,-9.989,-1.173,1.063,0.705,0.454,0.205
2226,-10.027,-1.135,1.063,0.678,0.419,0.198
2227,-10.056,-1.101,1.073,0.649,0.384,0.189
2228,-10.065,-1.053,1.101,0.606,0.337,0.176
2229,-10.065,-1.034,1.125,0.572,0.302,0.166
2230,-10.051,-1.006,1.14,0.537,0.268,0.156
2231,-10.017,-0.982,1.159,0.488,0.227,0.14
2232,-9.989,-0.972,1.192,0.45,0.2,0.128
2233,-9.946,-0.967,1.231,0.413,0.176,0.116
2234,-9.888,-0.977,1.279,0.364,0.15,0.098
2235,-9.84,-0.991,1.312,0.328,0.135,0.084
2236,-9.787,-1.01,1.341,0.292,0.126,0.07
2237,-9.706,-1.049,1.384,0.247,0.119,0.052
2238,-9.649,-1.092,1.427,0.216,0.118,0.039
2239,-9.596,-1.135,1.465,0.185,0.122,0.025
2240,-9.529,-1.202,1.523,0.147,0.132,0.008
2241,-9.481,-1.25,1.556,0.121,0.143,-0.005
2242,-9.448,-1.312,1.575,0.098,0.157,-0.018
2243,-9.414,-1.393,1.599,0.07,0.179,-0.033
2244,-9.409,-1.451,1.618,0.052,0.197,-0.043
2245,-9.414,-1.508,1.652,0.037,0.216,-0.054
2246,-9.424,-1.585,1.676,0.02,0.242,-0.066
2247,-9.443,-1.638,1.69,0.01,0.262,-0.073
2248,-9.486,-1.709,1.7,0.001,0.289,-0.08
2249,-9.515,-1.757,1.709,-0.003,0.307,-0.084
2250,-9.558,-1.8,1.719,-0.005,0.325,-0.086
2251,-9.62,-1.853,1.705,-0.004,0.344,-0.085
2252,-9.668,-1.891,1.709,-0.001,0.356,-0.082
2253,-9.72,-1.925,1.7,0.002,0.365,-0.078
2254,-9.797,-1.963,1.705,0.009,0.372,-0.069
2255,-10.046,-2.045,1.666,0.039,0.358,-0.024
2256,-10.108,-2.054,1.642,0.049,0.343,-0.007
2257,-10.151,-2.064,1.628,0.056,0.33,0.006
2258,-10.195,-2.059,1.623,0.063,0.316,0.019
2259,-10.233,-2.049,1.609,0.071,0.294,0.036
2260,-10.262,-2.045,1.604,0.076,0.275,0.049
2261,-10.285,-2.04,1.595,0.082,0.257,0.062
2262,-10.305,-2.025,1.59,0.089,0.232,0.077
2263,-10.309,-2.006,1.58,0.093,0.213,0.087
2264,-10.309,-1.992,1.561,0.097,0.194,0.097
2265,-10.309,-1.968,1.571,0.1,0.171,0.108
2266,-10.295,-1.939,1.566,0.102,0.156,0.115
2267,-10.285,-1.92,1.556,0.103,0.141,0.122
2268,-10.262,-1.887,1.547,0.104,0.125,0.128
2269,-10.238,-1.858,1.537,0.103,0.115,0.131
2270,-10.214,-1.82,1.537,0.101,0.106,0.133
2271,-10.171,-1.767,1.537,0.098,0.098,0.135
2272,-10.151,-1.729,1.547,0.094,0.094,0.135
2273,-10.123,-1.686,1.547,0.089,0.092,0.133
2274,-10.084,-1.633,1.537,0.082,0.091,0.13
2275,-10.056,-1.585,1.532,0.075,0.09,0.128
2276,-10.027,-1.542,1.537,0.069,0.091,0.124
2277,-9.984,-1.489,1.528,0.058,0.093,0.117
2278,-9.955,-1.451,1.508,0.049,0.095,0.112
2279,-9.912,-1.417,1.513,0.041,0.096,0.105
2280,-9.864,-1.365,1.518,0.028,0.098,0.095
2281,-9.826,-1.331,1.513,0.018,0.098,0.087
2282,-9.792,-1.302,1.504,0.007,0.099,0.078
2283,-9.749,-1.264,1.484,-0.007,0.098,0.066
2284,-9.716,-1.245,1.489,-0.018,0.098,0.055
2285,-9.687,-1.221,1.48,-0.03,0.097,0.044
2286,-9.644,-1.207,1.47,-0.046,0.096,0.03
2287,-9.615,-1.197,1.47,-0.057,0.095,0.018
2288,-9.572,-1.183,1.48,-0.073,0.094,0.002
2289,-9.543,-1.178,1.475,-0.084,0.094,-0.01
2290,-9.519,-1.183,1.465,-0.095,0.093,-0.022
2291,-9.486,-1.192,1.456,-0.109,0.093,-0.037
2292,-9.457,-1.197,1.465,-0.118,0.094,-0.048
2293,-9.428,-1.202,1.47,-0.127,0.095,-0.058
2294,-9.395,-1.216,1.46,-0.135,0.096,-0.072
2295,-9.376,-1.231,1.46,-0.141,0.097,-0.081
2296,-9.333,-1.255,1.465,-0.145,0.097,-0.092
2297,-9.304,-1.274,1.47,-0.147,0.097,-0.1
2298,-9.27,-1.293,1.484,-0.145,0.095,-0.106
2299,-9.237,-1.317,1.48,-0.141,0.093,-0.114
2300,-9.213,-1.331,1.484,-0.136,0.09,-0.119
2301,-9.189,-1.346,1.499,-0.129,0.087,-0.122
2302,-9.146,-1.36,1.499,-0.116,0.082,-0.126
2303,-9.112,-1.379,1.508,-0.104,0.079,-0.128
2304,-9.074,-1.408,1.518,-0.087,0.074,-0.129
2305,-9.036,-1.417,1.523,-0.072,0.071,-0.129
2306,-9.012,-1.427,1.523,-0.055,0.068,-0.129
2307,-8.969,-1.446,1.523,-0.032,0.065,-0.128
2308,-8.926,-1.451,1.528,-0.014,0.062,-0.125
2309,-8.892,-1.456,1.537,0.006,0.06,-0.123
2310,-8.844,-1.47,1.547,0.033,0.059,-0.119
2311,-8.811,-1.475,1.551,0.054,0.058,-0.117
2312,-8.777,-1.48,1.547,0.075,0.059,-0.114
2313,-8.729,-1.48,1.551,0.104,0.059,-0.109
2314,-8.686,-1.48,1.547,0.126,0.059,-0.106
2315,-8.638,-1.46,1.542,0.155,0.061,-0.101
2316,-8.447,-1.393,1.523,0.244,0.06,-0.087
2317,-8.399,-1.374,1.513,0.262,0.059,-0.083
2318,-8.332,-1.355,1.499,0.284,0.056,-0.08
2319,-8.279,-1.341,1.48,0.3,0.055,-0.079
2320,-8.217,-1.326,1.465,0.318,0.053,-0.077
2321,-8.174,-1.312,1.451,0.329,0.052,-0.076
2322,-8.126,-1.293,1.437,0.34,0.052,-0.076
2323,-8.068,-1.259,1.432,0.351,0.052,-0.076
2324,-8.025,-1.24,1.422,0.357,0.053,-0.076
2325,-7.987,-1.226,1.398,0.362,0.055,-0.076
2326,-7.93,-1.202,1.379,0.367,0.059,-0.078
2327,-7.891,-1.188,1.36,0.368,0.062,-0.078
2328,-7.863,-1.173,1.346,0.368,0.066,-0.079
2329,-7.824,-1.164,1.322,0.368,0.073,-0.081
2330,-7.791,-1.149,1.298,0.366,0.079,-0.082
2331,-7.772,-1.14,1.293,0.363,0.084,-0.083
2332,-7.743,-1.13,1.283,0.357,0.092,-0.084
2333,-7.724,-1.12,1.269,0.353,0.098,-0.086
2334,-7.705,-1.106,1.25,0.347,0.104,-0.087
2335,-7.7,-1.106,1.24,0.338,0.111,-0.088
2336,-7.69,-1.106,1.231,0.331,0.117,-0.089
2337,-7.685,-1.101,1.207,0.32,0.126,-0.091
2338,-7.69,-1.097,1.197,0.311,0.132,-0.092
2339,-7.705,-1.092,1.192,0.302,0.138,-0.093
2340,-7.733,-1.092,1.173,0.288,0.149,-0.094
2341,-7.762,-1.092,1.154,0.277,0.158,-0.096
2342,-7.791,-1.097,1.13,0.265,0.169,-0.097
2343,-7.834,-1.101,1.111,0.249,0.185,-0.1
2344,-7.877,-1.106,1.106,0.236,0.199,-0.101
2345,-7.92,-1.116,1.097,0.223,0.215,-0.102
2346,-7.987,-1.13,1.097,0.205,0.235,-0.104
2347,-8.045,-1.144,1.087,0.191,0.251,-0.105
2348,-8.092,-1.154,1.073,0.178,0.267,-0.107
2349,-8.169,-1.173,1.068,0.16,0.288,-0.109
2350,-8.236,-1.192,1.068,0.146,0.303,-0.11
2351,-8.332,-1.231,1.058,0.128,0.321,-0.112
2352,-8.408,-1.259,1.053,0.115,0.335,-0.113
2353,-8.485,-1.288,1.03,0.102,0.347,-0.114
2354,-8.595,-1.341,1.015,0.085,0.361,-0.114
2355,-8.672,-1.379,1.01,0.074,0.371,-0.115
2356,-8.748,-1.422,1.001,0.064,0.38,-0.116
2357,-8.854,-1.484,1.001,0.051,0.388,-0.116
2358,-8.935,-1.528,0.996,0.044,0.393,-0.114
2359,-9.012,-1.58,0.991,0.039,0.397,-0.113
2360,-9.112,-1.652,0.982,0.035,0.4,-0.11
2361,-9.184,-1.705,0.977,0.035,0.4,-0.106
2362,-9.256,-1.753,0.977,0.038,0.399,-0.103
2363,-9.347,-1.82,0.962,0.046,0.396,-0.097
2364,-9.409,-1.867,0.958,0.055,0.392,-0.09
2365,-9.476,-1.925,0.934,0.074,0.386,-0.08
2366,-9.519,-1.968,0.91,0.091,0.38,-0.071
2367,-9.558,-2.011,0.9,0.112,0.373,-0.062
2368,-9.601,-2.064,0.886,0.143,0.36,-0.047
2369,-9.62,-2.093,0.867,0.171,0.347,-0.035
2370,-9.629,-2.112,0.848,0.201,0.332,-0.023
2371,-9.629,-2.131,0.814,0.245,0.307,-0.006
2372,-9.625,-2.131,0.785,0.281,0.285,0.008
2373,-9.615,-2.126,0.771,0.318,0.261,0.022
2374,-9.577,-2.102,0.733,0.369,0.225,0.04
2375,-9.534,-2.083,0.709,0.408,0.197,0.054
2376,-9.481,-2.054,0.694,0.447,0.166,0.067
2377,-9.414,-1.997,0.67,0.499,0.122,0.085
2378,-9.357,-1.954,0.656,0.537,0.088,0.096
2379,-9.285,-1.901,0.656,0.573,0.054,0.107
2380,-9.189,-1.82,0.627,0.62,0.009,0.12
2381,-9.112,-1.757,0.622,0.652,-0.023,0.128
2382,-9.045,-1.7,0.632,0.681,-0.053,0.135
2383,-8.95,-1.623,0.622,0.715,-0.089,0.141
2384,-8.878,-1.556,0.618,0.737,-0.111,0.143
2385,-8.792,-1.48,0.603,0.759,-0.132,0.143
2386,-8.724,-1.422,0.599,0.772,-0.141,0.139
2387,-8.672,-1.369,0.589,0.778,-0.144,0.135
2388,-8.619,-1.298,0.584,0.781,-0.136,0.125
2389,-8.595,-1.259,0.579,0.777,-0.121,0.115
2390,-8.576,-1.211,0.579,0.767,-0.098,0.105
2391,-8.571,-1.164,0.575,0.747,-0.058,0.087
2392,-8.586,-1.135,0.584,0.727,-0.02,0.073
2393,-8.61,-1.116,0.594,0.703,0.022,0.057
2394,-8.662,-1.087,0.613,0.665,0.082,0.036
2395,-8.715,-1.073,0.618,0.634,0.126,0.021
2396,-8.777,-1.063,0.637,0.602,0.17,0.006
2397,-8.878,-1.063,0.666,0.556,0.222,-0.013
2398,-9.266,-1.13,0.733,0.4,0.317,-0.059
2399,-9.38,-1.173,0.757,0.352,0.32,-0.068
2400,-9.471,-1.211,0.761,0.319,0.315,-0.074
2401,-9.553,-1.25,0.752,0.287,0.305,-0.079
2402,-9.649,-1.293,0.752,0.247,0.284,-0.084
2403,-9.711,-1.336,0.752,0.219,0.263,-0.085
2404,-9.783,-1.389,0.747,0.195,0.238,-0.085
2405,-9.859,-1.441,0.742,0.165,0.201,-0.083
2406,-9.917,-1.489,0.723,0.146,0.173,-0.081
2407,-9.96,-1.542,0.704,0.129,0.145,-0.077
2408,-10.017,-1.599,0.685,0.111,0.109,-0.07
2409,-10.046,-1.647,0.67,0.1,0.084,-0.066
2410,-10.07,-1.695,0.661,0.088,0.054,-0.057
2411,-10.099,-1.733,0.661,0.081,0.034,-0.05
2412,-10.123,-1.762,0.656,0.077,0.016,-0.043
2413,-10.142,-1.8,0.656,0.073,-0.003,-0.033
2414,-10.166,-1.82,0.656,0.073,-0.013,-0.026
2415,-10.18,-1.834,0.656,0.073,-0.022,-0.018
2416,-10.204,-1.858,0.651,0.075,-0.029,-0.008
2417,-10.214,-1.872,0.646,0.078,-0.032,-0.001
2418,-10.233,-1.891,0.656,0.08,-0.033,0.009
2419,-10.257,-1.901,0.656,0.082,-0.031,0.016
2420,-10.271,-1.906,0.656,0.085,-0.029,0.022
2421,-10.305,-1.925,0.675,0.086,-0.025,0.029
2422,-10.329,-1.954,0.69,0.086,-0.023,0.031
2423,-10.348,-1.939,0.694,0.087,-0.022,0.033
2424,-10.376,-1.92,0.713,0.087,-0.019,0.04
2425,-10.415,-1.93,0.742,0.086,-0.018,0.046
2426,-10.453,-1.944,0.771,0.086,-0.018,0.051
2427,-10.506,-1.935,0.8,0.084,-0.021,0.054
2428,-10.539,-1.911,0.809,0.082,-0.025,0.055
2429,-10.573,-1.877,0.809,0.077,-0.028,0.057
2430,-10.606,-1.829,0.814,0.068,-0.033,0.063
2431,-10.621,-1.796,0.819,0.058,-0.036,0.07
2432,-10.625,-1.767,0.833,0.046,-0.039,0.079
2433,-10.63,-1.738,0.824,0.026,-0.042,0.092
2434,-10.616,-1.719,0.824,0.008,-0.044,0.102
2435,-10.592,-1.7,0.838,-0.018,-0.048,0.115
2436,-10.558,-1.7,0.843,-0.038,-0.051,0.123
2437,-10.525,-1.695,0.838,-0.058,-0.054,0.13
2438,-10.467,-1.695,0.852,-0.083,-0.061,0.136
2439,-10.424,-1.695,0.871,-0.098,-0.067,0.139
2440,-10.376,-1.7,0.881,-0.111,-0.073,0.14
2441,-10.08,-1.724,0.919,-0.136,-0.105,0.115
2442,-10.022,-1.724,0.929,-0.135,-0.111,0.105
2443,-9.941,-1.729,0.91,-0.132,-0.116,0.09
2444,-9.888,-1.724,0.9,-0.128,-0.117,0.077
2445,-9.84,-1.714,0.886,-0.125,-0.116,0.064
2446,-9.783,-1.7,0.891,-0.122,-0.113,0.049
2447,-9.74,-1.695,0.876,-0.119,-0.109,0.038
2448,-9.697,-1.671,0.871,-0.116,-0.1,0.026
2449,-9.663,-1.666,0.857,-0.113,-0.092,0.017
2450,-9.634,-1.662,0.852,-0.111,-0.084,0.01
2451,-9.606,-1.642,0.852,-0.107,-0.072,0.002
2452,-9.586,-1.628,0.848,-0.104,-0.063,-0.003
2453,-9.577,-1.614,0.857,-0.101,-0.055,-0.006
2454,-9.572,-1.599,0.862,-0.095,-0.045,-0.01
2455,-9.562,-1.595,0.867,-0.09,-0.038,-0.011
2456,-9.553,-1.59,0.876,-0.083,-0.031,-0.012
2457,-9.543,-1.59,0.881,-0.078,-0.027,-0.012
2458,-9.543,-1.585,0.905,-0.073,-0.024,-0.011
2459,-9.538,-1.595,0.91,-0.067,-0.022,-0.01
2460,-9.529,-1.599,0.915,-0.062,-0.021,-0.008
2461,-9.534,-1.614,0.919,-0.057,-0.021,-0.006
2462,-9.524,-1.623,0.934,-0.054,-0.022,-0.004
2463,-9.519,-1.638,0.943,-0.05,-0.022,-0.003
2464,-9.515,-1.652,0.953,-0.045,-0.023,-0.001
2465,-9.51,-1.662,0.962,-0.041,-0.024,0.001
2466,-9.505,-1.666,0.977,-0.036,-0.024,0.002
2467,-9.495,-1.671,0.991,-0.03,-0.023,0.004
2468,-9.495,-1.681,1.001,-0.025,-0.022,0.005
2469,-9.471,-1.695,1.006,-0.018,-0.02,0.006
2470,-9.452,-1.695,1.015,-0.011,-0.019,0.006
2471,-9.433,-1.7,1.03,-0.006,-0.017,0.007
2472,-9.419,-1.7,1.034,0.001,-0.014,0.007
2473,-9.409,-1.7,1.03,0.007,-0.012,0.007
2474,-9.395,-1.695,1.044,0.011,-0.01,0.008
2475,-9.371,-1.69,1.044,0.016,-0.007,0.007
2476,-9.357,-1.681,1.034,0.019,-0.005,0.007
2477,-9.337,-1.666,1.02,0.023,-0.001,0.006
2478,-9.333,-1.652,1.015,0.024,0.002,0.007
2479,-9.323,-1.642,0.996,0.025,0.005,0.007
2480,-9.313,-1.618,0.982,0.026,0.011,0.007
2481,-9.309,-1.599,0.962,0.025,0.015,0.008
2482,-9.304,-1.571,0.948,0.024,0.021,0.009
2483,-9.309,-1.551,0.924,0.021,0.029,0.011
2484,-9.313,-1.537,0.905,0.019,0.035,0.013
2485,-9.323,-1.518,0.881,0.015,0.041,0.015
2486,-9.328,-1.484,0.852,0.011,0.047,0.019
2487,-9.333,-1.465,0.848,0.007,0.05,0.021
2488,-9.333,-1.441,0.828,0.003,0.053,0.024
2489,-9.323,-1.413,0.804,-0.003,0.053,0.027
2490,-9.328,-1.398,0.795,-0.008,0.051,0.03
2491,-9.318,-1.389,0.785,-0.012,0.047,0.032
2492,-9.323,-1.36,0.771,-0.02,0.04,0.035
2493,-9.309,-1.302,0.694,-0.053,0.002,0.037
2494,-9.313,-1.298,0.685,-0.068,-0.009,0.037
2495,-9.304,-1.283,0.685,-0.079,-0.018,0.036
2496,-9.304,-1.274,0.685,-0.091,-0.025,0.035
2497,-9.313,-1.264,0.67,-0.11,-0.034,0.034
2498,-9.309,-1.255,0.675,-0.124,-0.039,0.033
2499,-9.309,-1.245,0.675,-0.138,-0.043,0.033
2500,-9.299,-1.235,0.69,-0.158,-0.046,0.032
2501,-9.294,-1.221,0.694,-0.172,-0.048,0.032
2502,-9.29,-1.202,0.699,-0.19,-0.051,0.032
2503,-9.27,-1.197,0.709,-0.202,-0.053,0.032
2504,-9.261,-1.188,0.723,-0.213,-0.055,0.033
2505,-9.242,-1.178,0.737,-0.227,-0.059,0.034
2506,-9.222,-1.168,0.752,-0.237,-0.062,0.035
2507,-9.199,-1.159,0.757,-0.245,-0.067,0.036
2508,-9.165,-1.159,0.776,-0.256,-0.074,0.036
2509,-9.131,-1.159,0.781,-0.263,-0.078,0.036
2510,-9.088,-1.164,0.785,-0.272,-0.086,0.036
2511,-9.064,-1.159,0.79,-0.278,-0.09,0.034
2512,-9.031,-1.149,0.8,-0.283,-0.095,0.032
2513,-8.983,-1.14,0.8,-0.29,-0.101,0.03
2514,-8.95,-1.144,0.804,-0.294,-0.104,0.028
2515,-8.902,-1.14,0.8,-0.296,-0.107,0.025
2516,-8.844,-1.14,0.795,-0.298,-0.111,0.022
2517,-8.806,-1.14,0.804,-0.298,-0.114,0.019
2518,-8.768,-1.14,0.814,-0.297,-0.116,0.016
2519,-8.715,-1.14,0.824,-0.294,-0.118,0.012
2520,-8.681,-1.144,0.824,-0.291,-0.119,0.009
2521,-8.633,-1.149,0.828,-0.284,-0.119,0.004
2522,-8.605,-1.154,0.843,-0.277,-0.119,0.001
2523,-8.571,-1.159,0.848,-0.268,-0.118,-0.003
2524,-8.533,-1.164,0.857,-0.256,-0.115,-0.008
2525,-8.509,-1.173,0.867,-0.245,-0.112,-0.011
2526,-8.48,-1.178,0.871,-0.234,-0.108,-0.015
2527,-8.456,-1.192,0.876,-0.217,-0.102,-0.019
2528,-8.442,-1.197,0.881,-0.204,-0.097,-0.022
2529,-8.423,-1.207,0.876,-0.186,-0.089,-0.025
2530,-8.423,-1.211,0.871,-0.172,-0.082,-0.027
2531,-8.423,-1.221,0.876,-0.157,-0.074,-0.029
2532,-8.428,-1.226,0.871,-0.138,-0.062,-0.031
2533,-8.437,-1.226,0.881,-0.124,-0.052,-0.031
2534,-8.461,-1.231,0.891,-0.105,-0.038,-0.032
2535,-8.629,-1.25,0.862,-0.049,0.02,-0.024
2536,-8.701,-1.259,0.852,-0.036,0.041,-0.018
2537,-8.763,-1.264,0.843,-0.027,0.058,-0.014
2538,-8.835,-1.274,0.833,-0.019,0.075,-0.009
2539,-8.935,-1.283,0.819,-0.011,0.096,-0.001
2540,-9.012,-1.283,0.804,-0.006,0.113,0.005
2541,-9.093,-1.279,0.79,-0.002,0.13,0.013
2542,-9.194,-1.279,0.8,0.002,0.149,0.023
2543,-9.28,-1.283,0.8,0.005,0.162,0.031
2544,-9.357,-1.279,0.795,0.007,0.173,0.041
2545,-9.452,-1.269,0.79,0.009,0.185,0.053
2546,-9.529,-1.264,0.781,0.01,0.191,0.063
2547,-9.601,-1.25,0.785,0.012,0.195,0.074
2548,-9.682,-1.231,0.781,0.013,0.195,0.088
2549,-9.725,-1.221,0.785,0.013,0.192,0.099
2550,-9.764,-1.207,0.8,0.015,0.185,0.109
2551,-9.792,-1.188,0.8,0.018,0.172,0.122
2552,-9.797,-1.168,0.809,0.02,0.157,0.132
2553,-9.787,-1.144,0.828,0.024,0.139,0.14
2554,-9.764,-1.116,0.838,0.029,0.109,0.151
2555,-9.725,-1.087,0.843,0.035,0.082,0.157
2556,-9.673,-1.053,0.862,0.042,0.052,0.163
2557,-9.586,-1.006,0.881,0.052,0.008,0.169
2558,-9.51,-0.967,0.895,0.061,-0.028,0.171
2559,-9.428,-0.939,0.919,0.069,-0.064,0.172
2560,-9.294,-0.891,0.953,0.082,-0.113,0.171
2561,-9.184,-0.857,0.958,0.092,-0.148,0.169
2562,-9.026,-0.804,0.977,0.104,-0.192,0.165
2563,-8.897,-0.776,0.991,0.113,-0.22,0.16
2564,-8.763,-0.737,0.996,0.122,-0.245,0.155
2565,-8.576,-0.699,1.01,0.133,-0.269,0.145
2566,-8.432,-0.666,1.01,0.141,-0.28,0.137
2567,-8.289,-0.642,1.02,0.147,-0.286,0.128
2568,-8.107,-0.608,1.03,0.155,-0.284,0.115
2569,-7.977,-0.584,1.03,0.161,-0.278,0.105
2570,-7.853,-0.555,1.049,0.166,-0.266,0.094
2571,-7.705,-0.522,1.039,0.171,-0.243,0.08
2572,-7.618,-0.498,1.053,0.174,-0.222,0.07
2573,-7.527,-0.484,1.063,0.177,-0.197,0.059
2574,-7.432,-0.46,1.082,0.178,-0.159,0.046
2575,-7.384,-0.445,1.092,0.177,-0.127,0.037
2576,-7.336,-0.417,1.111,0.174,-0.082,0.025
2577,-7.321,-0.397,1.125,0.171,-0.045,0.016
2578,-7.326,-0.383,1.135,0.167,-0.008,0.008
2579,-7.36,-0.369,1.144,0.158,0.043,-0.0
2580,-7.403,-0.359,1.159,0.151,0.082,-0.006
2581,-7.456,-0.35,1.188,0.143,0.119,-0.011
2582,-7.532,-0.354,1.211,0.131,0.166,-0.016
2583,-7.604,-0.359,1.235,0.121,0.198,-0.019
2584,-7.681,-0.359,1.255,0.112,0.227,-0.021
2585,-7.796,-0.369,1.298,0.099,0.259,-0.023
2586,-7.891,-0.378,1.341,0.089,0.279,-0.024
2587,-7.992,-0.388,1.365,0.08,0.295,-0.025
2588,-8.131,-0.417,1.403,0.068,0.309,-0.026
2589,-8.226,-0.426,1.432,0.06,0.314,-0.027
2590,-8.356,-0.45,1.456,0.049,0.316,-0.027
2591,-8.452,-0.479,1.475,0.042,0.313,-0.026
2592,-8.538,-0.503,1.494,0.036,0.307,-0.027
2593,-8.657,-0.536,1.537,0.029,0.296,-0.027
2594,-8.739,-0.56,1.556,0.024,0.286,-0.027
2595,-8.811,-0.589,1.585,0.021,0.275,-0.028
2596,-8.906,-0.622,1.604,0.018,0.26,-0.029
2597,-8.969,-0.656,1.614,0.017,0.249,-0.031
2598,-9.031,-0.69,1.633,0.015,0.239,-0.033
2599,-9.108,-0.728,1.638,0.015,0.227,-0.035
2600,-9.165,-0.757,1.638,0.016,0.22,-0.037
2601,-9.218,-0.795,1.642,0.017,0.215,-0.039
2602,-9.294,-0.833,1.647,0.018,0.213,-0.041
2603,-9.347,-0.867,1.638,0.02,0.214,-0.043
2604,-9.428,-0.905,1.618,0.022,0.221,-0.046
2605,-9.491,-0.929,1.614,0.022,0.229,-0.047
2606,-9.553,-0.953,1.609,0.022,0.241,-0.047
2607,-9.649,-0.991,1.59,0.021,0.261,-0.047
2608,-9.735,-1.015,1.58,0.02,0.279,-0.046
2609,-9.816,-1.03,1.566,0.016,0.298,-0.044
2610,-9.931,-1.044,1.532,0.012,0.326,-0.04
2611,-10.022,-1.053,1.528,0.009,0.347,-0.035
2612,-10.113,-1.058,1.504,0.006,0.366,-0.028
2613,-10.228,-1.068,1.484,0.003,0.389,-0.017
2614,-10.534,-1.049,1.446,0.005,0.41,0.03
2615,-10.587,-1.039,1.441,0.012,0.398,0.045
2616,-10.621,-1.039,1.422,0.017,0.382,0.057
2617,-10.659,-1.034,1.398,0.024,0.363,0.067
2618,-10.688,-1.03,1.389,0.034,0.331,0.078
2619,-10.697,-1.025,1.369,0.04,0.304,0.085
2620,-10.702,-1.02,1.35,0.047,0.276,0.091
2621,-10.712,-1.01,1.341,0.055,0.237,0.096
2622,-10.712,-1.001,1.336,0.06,0.21,0.097
2623,-10.702,-1.001,1.322,0.063,0.183,0.097
2624,-10.697,-0.991,1.307,0.067,0.152,0.095
2625,-10.693,-0.991,1.293,0.068,0.133,0.091
2626,-10.688,-0.982,1.283,0.069,0.119,0.086
2627,-10.688,-0.972,1.274,0.068,0.108,0.079
2628,-10.683,-0.958,1.259,0.067,0.105,0.073
2629,-10.678,-0.953,1.25,0.064,0.107,0.066
2630,-10.678,-0.939,1.235,0.059,0.117,0.058
2631,-10.683,-0.934,1.24,0.054,0.129,0.052
2632,-10.683,-0.919,1.24,0.05,0.144,0.045
2633,-10.688,-0.915,1.24,0.043,0.165,0.037
2634,-10.693,-0.91,1.25,0.037,0.183,0.032
2635,-10.688,-0.905,1.245,0.031,0.2,0.027
2636,-10.693,-0.895,1.24,0.025,0.221,0.02
2637,-10.702,-0.891,1.24,0.019,0.234,0.016
2638,-10.707,-0.881,1.25,0.014,0.244,0.011
2639,-10.702,-0.886,1.255,0.009,0.252,0.006
2640,-10.697,-0.881,1.255,0.006,0.253,0.002
2641,-10.688,-0.876,1.255,0.003,0.251,-0.002
2642,-10.654,-0.871,1.264,0.001,0.241,-0.008
2643,-10.63,-0.871,1.274,0.001,0.23,-0.012
2644,-10.587,-0.867,1.279,0.002,0.21,-0.018
2645,-10.539,-0.862,1.283,0.003,0.191,-0.022
2646,-10.491,-0.862,1.283,0.007,0.17,-0.027
2647,-10.4,-0.867,1.283,0.013,0.139,-0.034
2648,-10.324,-0.867,1.279,0.019,0.114,-0.039
2649,-10.252,-0.867,1.279,0.026,0.088,-0.044
2650,-10.142,-0.871,1.269,0.037,0.055,-0.053
2651,-10.046,-0.871,1.259,0.046,0.031,-0.06
2652,-9.95,-0.871,1.25,0.055,0.009,-0.066
2653,-9.811,-0.881,1.245,0.069,-0.017,-0.076
2654,-9.706,-0.891,1.231,0.08,-0.032,-0.085
2655,-9.606,-0.891,1.211,0.09,-0.046,-0.093
2656,-9.462,-0.9,1.211,0.105,-0.059,-0.104
2657,-9.361,-0.9,1.207,0.116,-0.064,-0.113
2658,-9.208,-0.91,1.207,0.131,-0.068,-0.124
2659,-9.098,-0.919,1.207,0.141,-0.067,-0.132
2660,-8.993,-0.919,1.207,0.152,-0.065,-0.139
2661,-8.854,-0.924,1.197,0.167,-0.06,-0.148
2662,-8.753,-0.929,1.192,0.176,-0.054,-0.155
2663,-8.662,-0.924,1.183,0.185,-0.048,-0.16
2664,-8.547,-0.919,1.178,0.197,-0.039,-0.167
2665,-8.466,-0.924,1.183,0.205,-0.032,-0.172
2666,-8.37,-0.929,1.188,0.214,-0.023,-0.177
2667,-8.303,-0.939,1.178,0.219,-0.016,-0.18
2668,-8.068,-0.986,1.192,0.232,0.016,-0.193
2669,-8.021,-1.006,1.197,0.232,0.028,-0.197
2670,-8.001,-1.02,1.211,0.231,0.038,-0.2
2671,-7.982,-1.049,1.216,0.229,0.053,-0.204
2672,-7.968,-1.068,1.231,0.227,0.066,-0.206
2673,-7.968,-1.087,1.245,0.225,0.08,-0.209
2674,-7.958,-1.101,1.274,0.221,0.098,-0.211
2675,-7.958,-1.116,1.293,0.217,0.111,-0.212
2676,-7.963,-1.13,1.298,0.215,0.125,-0.213
2677,-7.963,-1.149,1.312,0.211,0.141,-0.215
2678,-7.958,-1.154,1.331,0.209,0.151,-0.214
2679,-7.958,-1.164,1.341,0.208,0.16,-0.213
2680,-7.954,-1.183,1.331,0.208,0.167,-0.212
2681,-7.949,-1.188,1.346,0.207,0.17,-0.211
2682,-7.934,-1.197,1.35,0.208,0.169,-0.209
2683,-7.925,-1.216,1.365,0.209,0.165,-0.208
2684,-7.91,-1.235,1.369,0.21,0.16,-0.207
2685,-7.882,-1.259,1.369,0.212,0.151,-0.207
2686,-7.863,-1.283,1.36,0.213,0.143,-0.206
