,aX,aY,aZ,gX,gY,gZ
0,-9.256,-1.575,0.728,-0.037,0.057,0.028
1,-9.246,-1.58,0.737,-0.027,0.063,0.03
2,-9.242,-1.58,0.752,-0.017,0.07,0.032
3,-9.227,-1.571,0.757,-0.005,0.079,0.036
4,-9.222,-1.561,0.771,0.004,0.087,0.039
5,-9.222,-1.556,0.766,0.014,0.094,0.043
6,-9.203,-1.542,0.766,0.027,0.104,0.048
7,-9.199,-1.532,0.761,0.035,0.11,0.053
8,-9.194,-1.513,0.761,0.043,0.116,0.057
9,-9.184,-1.499,0.752,0.053,0.122,0.064
10,-9.175,-1.484,0.752,0.06,0.126,0.068
11,-9.165,-1.47,0.737,0.066,0.13,0.072
12,-9.165,-1.456,0.723,0.072,0.133,0.077
13,-9.165,-1.437,0.709,0.077,0.135,0.08
14,-9.16,-1.427,0.685,0.079,0.136,0.084
15,-9.155,-1.417,0.666,0.082,0.137,0.088
16,-9.155,-1.398,0.661,0.083,0.137,0.09
17,-9.155,-1.384,0.646,0.083,0.136,0.091
18,-9.146,-1.365,0.637,0.08,0.134,0.094
19,-9.146,-1.355,0.622,0.077,0.133,0.095
20,-9.141,-1.35,0.613,0.074,0.131,0.095
21,-9.141,-1.35,0.584,0.067,0.13,0.095
22,-9.155,-1.341,0.575,0.06,0.13,0.096
23,-9.17,-1.341,0.555,0.053,0.13,0.095
24,-9.189,-1.336,0.546,0.042,0.133,0.094
25,-9.199,-1.331,0.522,0.033,0.135,0.094
26,-9.218,-1.326,0.503,0.022,0.138,0.094
27,-9.251,-1.322,0.498,0.009,0.143,0.094
28,-9.275,-1.317,0.488,-0.002,0.148,0.093
29,-9.304,-1.312,0.503,-0.017,0.152,0.094
30,-9.337,-1.307,0.503,-0.029,0.155,0.096
31,-9.361,-1.298,0.508,-0.039,0.156,0.097
32,-9.385,-1.298,0.508,-0.053,0.156,0.098
33,-9.404,-1.293,0.517,-0.064,0.153,0.1
34,-9.424,-1.288,0.512,-0.074,0.149,0.102
35,-9.452,-1.283,0.503,-0.087,0.141,0.104
36,-9.471,-1.288,0.498,-0.097,0.133,0.106
37,-9.486,-1.288,0.498,-0.106,0.123,0.107
38,-9.505,-1.298,0.512,-0.118,0.109,0.109
39,-9.51,-1.298,0.508,-0.126,0.097,0.109
40,-9.51,-1.302,0.512,-0.135,0.085,0.11
41,-9.505,-1.307,0.512,-0.145,0.069,0.111
42,-9.5,-1.302,0.522,-0.153,0.057,0.111
43,-9.481,-1.307,0.517,-0.162,0.042,0.111
44,-9.457,-1.307,0.508,-0.17,0.031,0.111
45,-9.443,-1.307,0.508,-0.176,0.02,0.11
46,-9.414,-1.302,0.503,-0.183,0.007,0.109
47,-9.38,-1.302,0.493,-0.189,-0.003,0.108
48,-9.352,-1.293,0.479,-0.194,-0.011,0.107
49,-9.304,-1.283,0.479,-0.2,-0.021,0.106
50,-9.275,-1.283,0.474,-0.204,-0.027,0.104
51,-9.246,-1.283,0.484,-0.209,-0.033,0.102
52,-9.199,-1.283,0.474,-0.215,-0.038,0.099
53,-9.165,-1.279,0.464,-0.219,-0.04,0.097
54,-9.131,-1.283,0.441,-0.226,-0.041,0.093
55,-9.108,-1.283,0.431,-0.231,-0.039,0.091
56,-9.088,-1.288,0.426,-0.236,-0.037,0.088
57,-9.069,-1.288,0.421,-0.243,-0.032,0.085
58,-9.05,-1.293,0.417,-0.25,-0.027,0.084
59,-9.036,-1.293,0.417,-0.255,-0.022,0.082
60,-9.031,-1.298,0.421,-0.263,-0.014,0.079
61,-9.026,-1.298,0.417,-0.268,-0.008,0.078
62,-9.031,-1.302,0.412,-0.275,0.0,0.076
63,-9.031,-1.307,0.421,-0.28,0.006,0.076
64,-9.036,-1.302,0.426,-0.283,0.012,0.076
65,-9.041,-1.317,0.426,-0.288,0.018,0.077
66,-9.05,-1.326,0.441,-0.291,0.022,0.078
67,-9.064,-1.336,0.46,-0.293,0.025,0.08
68,-9.088,-1.341,0.479,-0.296,0.027,0.083
69,-9.088,-1.341,0.474,-0.296,0.028,0.085
70,-9.084,-1.346,0.479,-0.296,0.026,0.089
71,-9.064,-1.35,0.508,-0.293,0.021,0.093
72,-9.055,-1.35,0.532,-0.29,0.014,0.096
73,-9.036,-1.355,0.546,-0.286,0.005,0.1
74,-8.997,-1.35,0.584,-0.28,-0.012,0.106
75,-8.954,-1.341,0.603,-0.274,-0.026,0.109
76,-8.902,-1.331,0.632,-0.264,-0.048,0.113
77,-8.854,-1.317,0.646,-0.256,-0.066,0.115
78,-8.571,-1.274,0.694,-0.221,-0.149,0.122
79,-8.466,-1.255,0.713,-0.21,-0.172,0.122
80,-8.375,-1.235,0.718,-0.202,-0.189,0.122
81,-8.255,-1.202,0.728,-0.193,-0.209,0.12
82,-8.145,-1.188,0.733,-0.188,-0.223,0.119
83,-8.035,-1.164,0.747,-0.182,-0.235,0.118
84,-7.887,-1.135,0.737,-0.177,-0.249,0.115
85,-7.767,-1.116,0.733,-0.175,-0.258,0.113
86,-7.638,-1.087,0.728,-0.174,-0.267,0.111
87,-7.465,-1.053,0.728,-0.174,-0.277,0.108
88,-7.331,-1.025,0.728,-0.176,-0.286,0.106
89,-7.135,-0.986,0.728,-0.18,-0.3,0.104
90,-6.981,-0.953,0.733,-0.183,-0.312,0.103
91,-6.819,-0.919,0.737,-0.187,-0.327,0.102
92,-6.598,-0.867,0.747,-0.191,-0.352,0.1
93,-6.421,-0.824,0.757,-0.193,-0.375,0.1
94,-6.244,-0.781,0.781,-0.195,-0.403,0.1
95,-6.0,-0.723,0.809,-0.194,-0.449,0.1
96,-5.804,-0.68,0.833,-0.192,-0.489,0.099
97,-5.531,-0.613,0.886,-0.186,-0.55,0.1
98,-5.31,-0.57,0.919,-0.18,-0.602,0.1
99,-5.085,-0.522,0.962,-0.172,-0.658,0.099
100,-4.769,-0.464,1.02,-0.159,-0.738,0.098
101,-4.515,-0.421,1.073,-0.148,-0.801,0.096
102,-4.257,-0.383,1.13,-0.134,-0.866,0.092
103,-3.917,-0.335,1.216,-0.114,-0.952,0.086
104,-3.663,-0.302,1.288,-0.097,-1.016,0.079
105,-3.299,-0.259,1.365,-0.071,-1.098,0.069
106,-3.021,-0.23,1.427,-0.05,-1.155,0.058
107,-2.734,-0.201,1.484,-0.026,-1.207,0.046
108,-2.351,-0.182,1.551,0.008,-1.267,0.028
109,-2.073,-0.158,1.599,0.035,-1.303,0.013
110,-1.796,-0.144,1.638,0.062,-1.329,-0.005
111,-1.432,-0.134,1.681,0.099,-1.347,-0.031
112,-1.178,-0.12,1.719,0.126,-1.348,-0.052
113,-0.934,-0.12,1.733,0.152,-1.338,-0.074
114,-0.656,-0.12,1.733,0.183,-1.302,-0.106
115,-0.474,-0.129,1.743,0.204,-1.259,-0.131
116,-0.283,-0.144,1.762,0.226,-1.179,-0.166
117,-0.172,-0.163,1.757,0.237,-1.101,-0.191
118,-0.091,-0.182,1.757,0.244,-1.008,-0.217
119,-0.048,-0.215,1.748,0.247,-0.861,-0.25
120,-0.057,-0.244,1.743,0.245,-0.735,-0.273
121,-0.115,-0.283,1.748,0.238,-0.596,-0.293
122,-0.249,-0.35,1.767,0.225,-0.397,-0.317
123,-0.402,-0.402,1.791,0.212,-0.24,-0.332
124,-0.67,-0.479,1.834,0.189,-0.025,-0.346
125,-0.91,-0.541,1.863,0.168,0.136,-0.351
126,-2.485,-0.9,1.915,0.044,0.863,-0.317
127,-2.907,-0.986,1.882,0.012,1.008,-0.295
128,-3.357,-1.063,1.834,-0.023,1.149,-0.267
129,-4.003,-1.154,1.762,-0.073,1.329,-0.218
130,-4.525,-1.207,1.695,-0.112,1.457,-0.174
131,-5.061,-1.24,1.633,-0.152,1.579,-0.124
132,-5.799,-1.264,1.537,-0.206,1.726,-0.044
133,-6.354,-1.259,1.465,-0.243,1.822,0.023
134,-6.9,-1.24,1.417,-0.276,1.903,0.096
135,-7.594,-1.202,1.393,-0.312,1.98,0.201
136,-8.073,-1.173,1.389,-0.33,2.008,0.282
137,-8.643,-1.125,1.413,-0.338,1.996,0.394
138,-9.007,-1.082,1.451,-0.332,1.945,0.477
139,-9.299,-1.034,1.532,-0.314,1.853,0.556
140,-9.548,-0.967,1.585,-0.272,1.665,0.655
141,-9.644,-0.924,1.657,-0.226,1.48,0.721
142,-9.653,-0.886,1.729,-0.167,1.259,0.777
143,-9.553,-0.867,1.767,-0.073,0.914,0.834
144,-9.4,-0.862,1.781,0.008,0.629,0.863
145,-9.199,-0.876,1.8,0.098,0.325,0.878
146,-8.849,-0.895,1.829,0.225,-0.095,0.877
147,-8.562,-0.91,1.81,0.324,-0.408,0.86
148,-8.246,-0.924,1.796,0.424,-0.711,0.83
149,-7.791,-0.924,1.729,0.554,-1.082,0.771
150,-7.436,-0.915,1.676,0.649,-1.324,0.714
151,-7.082,-0.891,1.623,0.738,-1.53,0.649
152,-6.618,-0.843,1.566,0.846,-1.743,0.551
153,-6.282,-0.785,1.528,0.919,-1.852,0.471
154,-5.851,-0.694,1.422,1.001,-1.927,0.362
155,-5.535,-0.618,1.322,1.05,-1.928,0.282
156,-5.243,-0.536,1.221,1.089,-1.883,0.204
157,-4.903,-0.426,1.082,1.121,-1.753,0.105
158,-4.697,-0.35,0.991,1.13,-1.61,0.039
159,-4.525,-0.278,0.891,1.126,-1.435,-0.02
160,-4.386,-0.177,0.804,1.101,-1.162,-0.087
161,-4.338,-0.124,0.752,1.068,-0.935,-0.127
162,-4.348,-0.072,0.709,1.023,-0.696,-0.157
163,-4.444,-0.014,0.661,0.951,-0.372,-0.185
164,-4.578,0.014,0.651,0.888,-0.135,-0.195
165,-4.822,0.053,0.656,0.797,0.163,-0.197
166,-5.042,0.077,0.666,0.726,0.365,-0.19
167,-5.296,0.086,0.694,0.654,0.544,-0.175
168,-5.66,0.11,0.728,0.56,0.74,-0.146
169,-5.947,0.124,0.737,0.493,0.849,-0.12
170,-6.225,0.139,0.747,0.429,0.925,-0.088
171,-6.574,0.158,0.771,0.348,0.97,-0.042
172,-6.843,0.168,0.766,0.291,0.963,-0.005
173,-7.082,0.163,0.776,0.236,0.92,0.031
174,-7.369,0.144,0.771,0.164,0.812,0.075
175,-7.556,0.115,0.771,0.111,0.696,0.106
176,-7.714,0.072,0.771,0.059,0.557,0.131
177,-7.877,-0.019,0.752,-0.012,0.342,0.156
178,-7.973,-0.11,0.747,-0.067,0.166,0.165
179,-8.04,-0.211,0.742,-0.122,-0.016,0.167
180,-8.092,-0.364,0.742,-0.196,-0.261,0.155
181,-8.102,-0.484,0.742,-0.252,-0.436,0.136
182,-8.097,-0.603,0.742,-0.307,-0.598,0.11
183,-8.064,-0.771,0.771,-0.375,-0.786,0.064
184,-8.016,-0.881,0.824,-0.422,-0.902,0.024
185,-7.958,-1.03,0.924,-0.478,-1.02,-0.034
186,-7.92,-1.125,1.01,-0.514,-1.077,-0.078
187,-7.891,-1.207,1.087,-0.545,-1.106,-0.121
188,-7.882,-1.274,1.173,-0.576,-1.097,-0.173
189,-7.901,-1.298,1.226,-0.593,-1.054,-0.207
190,-7.982,-1.307,1.293,-0.607,-0.948,-0.241
191,-8.068,-1.288,1.331,-0.611,-0.833,-0.258
192,-8.207,-1.25,1.365,-0.61,-0.691,-0.266
193,-9.285,-1.015,1.542,-0.532,0.228,-0.207
194,-9.582,-0.958,1.585,-0.498,0.443,-0.181
195,-10.003,-0.876,1.633,-0.444,0.715,-0.142
196,-10.324,-0.8,1.686,-0.396,0.897,-0.112
197,-10.645,-0.713,1.724,-0.34,1.054,-0.082
198,-11.08,-0.594,1.762,-0.256,1.215,-0.044
199,-11.396,-0.503,1.767,-0.186,1.295,-0.02
200,-11.789,-0.373,1.762,-0.084,1.34,0.006
201,-12.048,-0.273,1.695,-0.005,1.328,0.019
202,-12.263,-0.168,1.556,0.075,1.282,0.025
203,-12.469,-0.014,1.336,0.181,1.172,0.025
204,-12.565,0.105,1.101,0.257,1.059,0.019
205,-12.632,0.23,0.867,0.329,0.927,0.008
206,-12.661,0.397,0.651,0.412,0.719,-0.014
207,-12.641,0.517,0.503,0.462,0.537,-0.035
208,-12.589,0.637,0.359,0.498,0.339,-0.057
209,-12.479,0.814,0.211,0.523,0.056,-0.088
210,-12.368,0.934,0.144,0.525,-0.163,-0.112
211,-12.239,1.049,0.096,0.511,-0.383,-0.134
212,-12.067,1.183,0.115,0.469,-0.672,-0.161
213,-11.928,1.25,0.172,0.421,-0.88,-0.181
214,-11.789,1.302,0.292,0.361,-1.078,-0.201
215,-11.569,1.312,0.431,0.264,-1.318,-0.228
216,-11.401,1.288,0.512,0.181,-1.468,-0.25
217,-11.21,1.245,0.594,0.093,-1.586,-0.274
218,-10.932,1.154,0.723,-0.028,-1.689,-0.31
219,-10.712,1.063,0.843,-0.118,-1.724,-0.339
220,-10.396,0.943,0.991,-0.231,-1.714,-0.38
221,-10.142,0.838,1.097,-0.308,-1.669,-0.412
222,-9.883,0.728,1.207,-0.378,-1.591,-0.444
223,-9.553,0.579,1.384,-0.458,-1.448,-0.487
224,-9.323,0.469,1.532,-0.507,-1.318,-0.517
225,-9.103,0.359,1.657,-0.548,-1.173,-0.548
226,-8.835,0.22,1.748,-0.59,-0.966,-0.586
227,-8.643,0.124,1.738,-0.614,-0.799,-0.611
228,-8.423,0.019,1.647,-0.634,-0.562,-0.642
229,-8.289,-0.057,1.561,-0.643,-0.379,-0.662
230,-8.198,-0.124,1.508,-0.648,-0.197,-0.677
231,-8.145,-0.239,1.451,-0.654,0.038,-0.694
232,-8.164,-0.34,1.422,-0.661,0.201,-0.704
233,-8.241,-0.46,1.398,-0.673,0.351,-0.714
234,-8.437,-0.642,1.398,-0.701,0.527,-0.725
235,-8.657,-0.781,1.422,-0.732,0.641,-0.734
236,-9.045,-0.943,1.499,-0.785,0.771,-0.747
237,-10.874,-1.01,1.508,-0.95,1.075,-0.719
238,-11.478,-0.881,1.302,-0.963,1.176,-0.668
239,-11.885,-0.771,1.053,-0.953,1.264,-0.613
240,-12.234,-0.67,0.733,-0.926,1.365,-0.547
241,-12.584,-0.603,0.225,-0.87,1.516,-0.444
242,-12.756,-0.608,-0.172,-0.815,1.633,-0.363
243,-12.847,-0.666,-0.579,-0.753,1.748,-0.284
244,-12.866,-0.809,-1.087,-0.659,1.882,-0.189
245,-12.823,-0.948,-1.398,-0.583,1.958,-0.131
246,-12.742,-1.14,-1.662,-0.474,2.012,-0.071
247,-12.694,-1.283,-1.733,-0.384,2.005,-0.04
248,-12.67,-1.403,-1.743,-0.286,1.956,-0.021
249,-12.708,-1.532,-1.686,-0.141,1.83,-0.009
250,-12.809,-1.604,-1.58,-0.02,1.699,-0.008
251,-13.039,-1.671,-1.355,0.155,1.486,-0.016
252,-13.254,-1.705,-1.168,0.294,1.308,-0.026
253,-13.484,-1.709,-1.063,0.435,1.131,-0.037
254,-13.781,-1.681,-1.03,0.623,0.925,-0.053
255,-13.977,-1.628,-1.053,0.76,0.807,-0.065
256,-14.145,-1.566,-1.13,0.889,0.731,-0.077
257,-14.289,-1.489,-1.302,1.045,0.701,-0.094
258,-14.336,-1.413,-1.504,1.146,0.735,-0.108
259,-14.308,-1.322,-1.824,1.257,0.849,-0.128
260,-14.236,-1.283,-2.016,1.322,0.972,-0.147
261,-14.159,-1.283,-2.088,1.367,1.109,-0.17
262,-14.02,-1.384,-2.212,1.391,1.28,-0.209
263,-13.953,-1.528,-2.38,1.383,1.401,-0.249
264,-13.92,-1.733,-2.715,1.353,1.515,-0.298
265,-13.757,-2.126,-4.041,1.28,1.701,-0.374
266,-13.69,-2.485,-5.219,1.202,1.905,-0.44
267,-16.817,-3.132,-6.177,0.78,3.042,-0.734
268,-18.68,-2.993,-4.851,0.722,3.085,-0.767
269,-20.719,-2.763,-3.745,0.694,3.021,-0.784
270,-23.559,-2.337,-2.088,0.709,2.795,-0.783
271,-25.704,-1.882,-0.441,0.758,2.501,-0.763
272,-28.582,-0.891,2.093,0.874,1.885,-0.697
273,-30.617,0.196,3.543,1.005,1.268,-0.604
274,-32.461,1.475,4.223,1.177,0.59,-0.466
275,-34.486,3.141,4.219,1.46,-0.281,-0.215
276,-35.439,4.08,3.812,1.674,-0.854,0.003
277,-35.602,4.559,3.179,1.852,-1.34,0.219
278,-34.429,4.487,2.48,2.003,-1.875,0.456
279,-32.82,4.152,2.485,2.043,-2.242,0.572
280,-30.852,3.812,3.026,2.027,-2.628,0.636
281,-27.94,3.519,4.219,1.94,-3.204,0.659
282,-25.604,3.366,5.258,1.847,-3.676,0.648
283,-23.138,3.127,6.263,1.743,-4.162,0.617
284,-19.58,2.528,7.436,1.596,-4.366,0.539
285,-16.759,1.887,7.977,1.466,-4.366,0.442
286,-13.791,1.144,8.126,1.302,-4.366,0.308
287,-9.558,-0.005,7.676,0.997,-4.366,0.077
288,-6.249,-1.015,6.771,0.689,-4.366,-0.13
289,-3.141,-2.16,5.708,0.32,-4.366,-0.36
290,0.378,-3.807,4.19,-0.235,-3.501,-0.684
291,2.409,-5.047,3.146,-0.666,-2.599,-0.926
292,4.257,-6.565,2.03,-1.219,-1.415,-1.234
293,5.028,-7.508,1.369,-1.599,-0.626,-1.444
294,5.267,-8.212,0.843,-1.944,0.047,-1.628
295,4.812,-8.82,0.311,-2.349,0.757,-1.819
296,3.946,-9.055,-0.048,-2.612,1.162,-1.91
297,2.701,-9.146,-0.354,-2.839,1.483,-1.949
298,0.551,-9.084,-0.522,-3.08,1.81,-1.921
299,-1.369,-8.878,-0.359,-3.21,1.992,-1.838
300,-3.5,-8.562,0.081,-3.292,2.12,-1.701
301,-6.541,-8.059,1.001,-3.321,2.204,-1.438
302,-8.844,-7.709,1.844,-3.282,2.199,-1.19
303,-11.775,-7.403,2.998,-3.15,2.105,-0.81
304,-13.752,-7.326,3.812,-2.997,1.974,-0.507
305,-15.467,-7.369,4.539,-2.802,1.798,-0.204
306,-17.233,-7.542,5.387,-2.485,1.503,0.174
307,-18.143,-7.676,5.938,-2.211,1.242,0.428
308,-18.684,-7.791,6.393,-1.91,0.953,0.654
309,-18.852,-7.91,6.8,-1.473,0.546,0.909
310,-18.608,-7.973,6.934,-1.122,0.245,1.063
311,-17.909,-8.03,6.91,-0.636,-0.121,1.221
312,-17.176,-8.021,6.766,-0.269,-0.35,1.308
313,-13.063,-7.432,5.191,1.168,-0.663,1.439
314,-11.952,-6.91,4.64,1.531,-0.508,1.427
315,-11.339,-6.364,4.281,1.775,-0.33,1.413
316,-10.894,-5.473,3.663,2.068,-0.02,1.398
317,-10.783,-4.717,2.816,2.272,0.277,1.393
318,-10.965,-3.855,2.064,2.47,0.638,1.395
319,-11.937,-2.389,2.006,2.712,1.14,1.425
320,-13.178,-1.053,2.346,2.879,1.465,1.478
321,-14.777,0.397,2.648,3.044,1.736,1.566
322,-17.262,2.313,2.806,3.273,2.022,1.737
323,-19.23,3.563,2.825,3.45,2.174,1.894
324,-21.136,4.559,2.868,3.624,2.251,2.053
325,-23.396,5.511,3.031,3.83,2.184,2.233
326,-24.775,6.053,3.136,3.946,1.977,2.322
327,-25.819,6.565,3.189,4.02,1.628,2.366
328,-26.662,7.254,3.136,4.042,0.958,2.361
329,-26.877,7.776,2.95,4.0,0.338,2.322
330,-26.753,8.265,2.629,3.905,-0.337,2.261
331,-26.092,8.839,2.126,3.684,-1.251,2.158
332,-25.254,9.222,1.695,3.438,-1.896,2.072
333,-24.124,9.553,1.188,3.118,-2.47,1.982
334,-22.161,9.816,0.263,2.571,-3.071,1.868
335,-20.446,9.874,-0.512,2.077,-3.374,1.782
336,-18.603,9.802,-1.288,1.524,-3.552,1.697
337,-16.027,9.457,-2.49,0.717,-3.6,1.58
338,-14.097,9.017,-3.505,0.079,-3.49,1.484
339,-12.277,8.452,-4.386,-0.57,-3.269,1.379
340,-10.147,7.479,-5.267,-1.436,-2.854,1.217
341,-8.792,6.555,-5.851,-2.068,-2.481,1.078
342,-7.647,5.464,-6.416,-2.665,-2.066,0.918
343,-6.483,3.859,-7.092,-3.383,-1.47,0.667
344,-5.904,2.629,-7.412,-3.85,-1.014,0.451
345,-5.531,1.053,-7.441,-4.365,-0.442,0.134
346,-5.55,-0.024,-7.226,-4.366,-0.069,-0.118
347,-5.808,-0.967,-6.871,-4.366,0.242,-0.379
348,-6.527,-1.949,-6.287,-4.366,0.55,-0.72
349,-7.302,-2.447,-5.813,-4.366,0.702,-0.96
350,-8.207,-2.763,-5.306,-4.366,0.788,-1.172
351,-9.5,-2.921,-4.702,-4.366,0.797,-1.397
352,-10.506,-2.935,-4.204,-4.366,0.737,-1.515
353,-11.693,-2.734,-3.668,-4.366,0.557,-1.601
354,-12.402,-2.495,-3.361,-4.366,0.365,-1.598
355,-12.943,-2.322,-3.112,-4.366,0.135,-1.54
356,-13.374,-2.217,-2.854,-4.118,-0.216,-1.393
357,-13.484,-2.236,-2.677,-3.884,-0.5,-1.243
358,-12.335,-2.825,-1.714,-2.877,-1.798,-0.432
359,-11.837,-2.873,-1.489,-2.684,-2.019,-0.276
360,-11.152,-3.089,-1.111,-2.426,-2.249,-0.089
361,-10.736,-3.256,-0.675,-2.203,-2.386,0.001
362,-10.233,-3.156,-0.34,-1.947,-2.5,0.056
363,-9.457,-2.72,-0.144,-1.604,-2.579,0.127
364,-8.844,-2.423,-0.081,-1.374,-2.562,0.191
365,-8.088,-2.207,0.062,-1.096,-2.447,0.28
366,-7.566,-2.14,0.168,-0.905,-2.305,0.335
367,-7.087,-2.116,0.22,-0.732,-2.118,0.376
368,-6.536,-2.174,0.283,-0.538,-1.811,0.404
369,-6.225,-2.26,0.364,-0.417,-1.552,0.399
370,-6.014,-2.342,0.493,-0.309,-1.283,0.37
371,-5.856,-2.404,0.694,-0.177,-0.924,0.298
372,-5.842,-2.389,0.843,-0.082,-0.664,0.226
373,-5.942,-2.303,1.044,0.043,-0.341,0.116
374,-6.11,-2.193,1.178,0.135,-0.123,0.032
375,-6.325,-2.049,1.293,0.223,0.071,-0.05
376,-6.689,-1.853,1.417,0.325,0.29,-0.149
377,-6.986,-1.719,1.499,0.386,0.421,-0.213
378,-7.302,-1.59,1.556,0.432,0.525,-0.269
379,-7.743,-1.437,1.604,0.467,0.62,-0.331
380,-8.073,-1.307,1.652,0.472,0.658,-0.366
381,-8.399,-1.183,1.69,0.461,0.667,-0.391
382,-8.801,-1.015,1.753,0.426,0.638,-0.406
383,-9.079,-0.91,1.805,0.387,0.586,-0.404
384,-9.395,-0.781,1.867,0.322,0.482,-0.383
385,-9.586,-0.699,1.911,0.267,0.382,-0.354
386,-9.735,-0.642,1.958,0.21,0.268,-0.317
387,-9.869,-0.627,2.021,0.129,0.1,-0.261
388,-9.898,-0.642,2.069,0.065,-0.031,-0.215
389,-9.893,-0.685,2.107,0.001,-0.162,-0.169
390,-9.816,-0.771,2.145,-0.085,-0.331,-0.113
391,-9.72,-0.862,2.174,-0.15,-0.447,-0.076
392,-9.601,-0.962,2.193,-0.213,-0.55,-0.047
393,-9.404,-1.101,2.236,-0.294,-0.666,-0.019
394,-9.242,-1.216,2.274,-0.351,-0.733,-0.008
395,-9.012,-1.365,2.313,-0.421,-0.796,-0.006
396,-8.835,-1.46,2.346,-0.465,-0.823,-0.014
397,-8.657,-1.537,2.375,-0.503,-0.832,-0.026
398,-8.447,-1.647,2.394,-0.546,-0.817,-0.045
399,-8.289,-1.748,2.404,-0.577,-0.785,-0.062
400,-8.116,-1.858,2.385,-0.619,-0.719,-0.094
401,-7.767,-1.935,2.327,-0.762,-0.359,-0.203
402,-7.738,-1.92,2.318,-0.803,-0.231,-0.224
403,-7.743,-1.92,2.327,-0.831,-0.137,-0.235
404,-7.767,-1.939,2.351,-0.854,-0.048,-0.242
405,-7.834,-1.982,2.389,-0.876,0.055,-0.249
406,-7.896,-2.035,2.428,-0.887,0.12,-0.252
407,-7.973,-2.093,2.471,-0.894,0.171,-0.256
408,-8.088,-2.164,2.528,-0.897,0.22,-0.26
409,-8.174,-2.212,2.576,-0.895,0.243,-0.264
410,-8.279,-2.26,2.638,-0.889,0.255,-0.266
411,-8.351,-2.284,2.677,-0.885,0.252,-0.264
412,-8.408,-2.294,2.71,-0.879,0.24,-0.258
413,-8.466,-2.294,2.758,-0.87,0.214,-0.243
414,-8.49,-2.289,2.796,-0.863,0.19,-0.224
415,-8.509,-2.284,2.835,-0.854,0.163,-0.2
416,-8.504,-2.279,2.878,-0.839,0.129,-0.159
417,-8.49,-2.279,2.887,-0.826,0.105,-0.124
418,-8.452,-2.294,2.907,-0.804,0.082,-0.072
419,-8.413,-2.318,2.916,-0.784,0.071,-0.03
420,-8.375,-2.346,2.926,-0.76,0.068,0.012
421,-8.308,-2.385,2.94,-0.722,0.077,0.066
422,-8.27,-2.413,2.95,-0.689,0.095,0.105
423,-8.222,-2.447,2.945,-0.652,0.121,0.142
424,-8.174,-2.485,2.935,-0.597,0.17,0.186
425,-8.155,-2.509,2.931,-0.552,0.215,0.215
426,-8.131,-2.528,2.921,-0.504,0.267,0.241
427,-8.112,-2.547,2.887,-0.438,0.344,0.27
428,-8.116,-2.552,2.854,-0.386,0.406,0.286
429,-8.135,-2.552,2.816,-0.317,0.491,0.304
430,-8.155,-2.538,2.782,-0.267,0.554,0.314
431,-8.179,-2.519,2.739,-0.217,0.615,0.321
432,-8.231,-2.476,2.672,-0.153,0.69,0.327
433,-8.294,-2.437,2.61,-0.11,0.739,0.33
434,-8.361,-2.389,2.567,-0.069,0.781,0.332
435,-8.461,-2.313,2.485,-0.02,0.826,0.335
436,-8.547,-2.241,2.442,0.011,0.848,0.338
437,-8.629,-2.164,2.394,0.039,0.862,0.342
438,-8.744,-2.064,2.346,0.07,0.866,0.347
439,-8.839,-1.982,2.313,0.089,0.859,0.353
440,-8.93,-1.896,2.274,0.104,0.843,0.361
441,-9.031,-1.786,2.236,0.119,0.811,0.372
442,-9.098,-1.719,2.212,0.128,0.781,0.381
443,-9.155,-1.647,2.198,0.134,0.746,0.39
444,-9.208,-1.566,2.174,0.14,0.695,0.402
445,-9.242,-1.504,2.155,0.143,0.654,0.411
446,-9.261,-1.446,2.145,0.146,0.614,0.418
447,-9.251,-1.384,2.136,0.148,0.564,0.426
448,-9.246,-1.341,2.112,0.149,0.528,0.43
449,-9.222,-1.293,2.083,0.152,0.496,0.432
450,-9.175,-1.231,2.054,0.156,0.461,0.43
451,-9.131,-1.188,2.03,0.159,0.44,0.427
452,-9.079,-1.149,2.006,0.165,0.423,0.422
453,-9.002,-1.097,1.973,0.173,0.406,0.411
454,-8.945,-1.053,1.958,0.179,0.398,0.401
455,-8.868,-0.996,1.939,0.188,0.391,0.385
456,-8.815,-0.953,1.935,0.195,0.39,0.371
457,-8.763,-0.91,1.906,0.201,0.39,0.357
458,-8.71,-0.848,1.877,0.207,0.393,0.336
459,-8.681,-0.8,1.839,0.209,0.397,0.319
460,-8.667,-0.747,1.815,0.21,0.402,0.302
461,-8.638,-0.69,1.781,0.207,0.411,0.28
462,-8.638,-0.642,1.767,0.201,0.419,0.264
463,-8.638,-0.599,1.748,0.194,0.427,0.248
464,-8.653,-0.536,1.724,0.18,0.438,0.227
465,-8.667,-0.493,1.705,0.168,0.447,0.212
466,-8.691,-0.455,1.7,0.153,0.455,0.199
467,-8.729,-0.412,1.69,0.133,0.466,0.181
468,-8.748,-0.378,1.676,0.117,0.474,0.168
469,-8.777,-0.359,1.681,0.099,0.48,0.157
470,-8.787,-0.34,1.681,0.077,0.485,0.141
471,-8.801,-0.33,1.69,0.061,0.486,0.13
472,-8.82,-0.326,1.695,0.046,0.485,0.118
473,-8.825,-0.316,1.719,0.027,0.479,0.102
474,-8.825,-0.311,1.733,0.016,0.47,0.09
475,-8.825,-0.316,1.753,0.007,0.46,0.077
476,-8.82,-0.326,1.781,-0.003,0.442,0.06
477,-8.815,-0.34,1.796,-0.007,0.427,0.047
478,-8.806,-0.364,1.81,-0.009,0.411,0.033
479,-8.772,-0.388,1.81,-0.008,0.388,0.014
480,-8.748,-0.397,1.815,-0.005,0.371,0.001
481,-8.724,-0.412,1.815,-0.001,0.355,-0.013
482,-8.691,-0.426,1.815,0.008,0.336,-0.031
483,-8.662,-0.436,1.8,0.017,0.324,-0.045
484,-8.624,-0.441,1.781,0.028,0.31,-0.062
485,-8.475,-0.426,1.714,0.073,0.285,-0.108
486,-8.442,-0.412,1.705,0.083,0.283,-0.116
487,-8.399,-0.397,1.676,0.097,0.279,-0.125
488,-8.37,-0.373,1.662,0.107,0.276,-0.13
489,-8.356,-0.354,1.633,0.116,0.274,-0.134
490,-8.327,-0.316,1.59,0.129,0.269,-0.138
491,-8.308,-0.292,1.561,0.139,0.266,-0.14
492,-8.284,-0.259,1.537,0.151,0.259,-0.141
493,-8.26,-0.244,1.513,0.159,0.253,-0.142
494,-8.236,-0.23,1.484,0.167,0.245,-0.141
495,-8.207,-0.206,1.46,0.177,0.232,-0.142
496,-8.179,-0.187,1.451,0.184,0.22,-0.142
497,-8.145,-0.168,1.432,0.189,0.205,-0.143
498,-8.102,-0.153,1.417,0.196,0.182,-0.145
499,-8.064,-0.144,1.408,0.202,0.162,-0.148
500,-8.021,-0.134,1.422,0.206,0.14,-0.151
501,-7.977,-0.129,1.427,0.213,0.108,-0.158
502,-7.944,-0.124,1.432,0.217,0.083,-0.164
503,-7.887,-0.124,1.437,0.223,0.05,-0.174
504,-7.839,-0.124,1.446,0.226,0.027,-0.182
505,-7.791,-0.12,1.451,0.229,0.005,-0.191
506,-7.733,-0.129,1.465,0.232,-0.019,-0.205
507,-7.685,-0.129,1.451,0.234,-0.033,-0.215
508,-7.638,-0.134,1.456,0.235,-0.043,-0.226
509,-7.585,-0.129,1.456,0.234,-0.051,-0.24
510,-7.551,-0.129,1.465,0.233,-0.054,-0.25
511,-7.523,-0.124,1.47,0.232,-0.053,-0.26
512,-7.484,-0.12,1.475,0.228,-0.047,-0.272
513,-7.456,-0.12,1.489,0.224,-0.04,-0.28
514,-7.422,-0.115,1.494,0.217,-0.025,-0.29
515,-7.408,-0.124,1.494,0.211,-0.012,-0.298
516,-7.389,-0.129,1.499,0.204,0.003,-0.304
517,-7.384,-0.153,1.513,0.194,0.023,-0.311
518,-7.379,-0.163,1.528,0.186,0.04,-0.316
519,-7.389,-0.182,1.542,0.177,0.057,-0.321
520,-7.403,-0.201,1.551,0.164,0.08,-0.326
521,-7.422,-0.215,1.551,0.155,0.097,-0.33
522,-7.436,-0.239,1.556,0.147,0.114,-0.333
523,-7.465,-0.278,1.571,0.136,0.134,-0.338
524,-7.494,-0.306,1.595,0.128,0.149,-0.34
525,-7.523,-0.335,1.623,0.122,0.162,-0.343
526,-7.57,-0.383,1.652,0.117,0.179,-0.346
527,-7.618,-0.417,1.676,0.115,0.192,-0.348
528,-7.671,-0.464,1.705,0.115,0.208,-0.349
529,-7.709,-0.503,1.719,0.117,0.219,-0.349
530,-7.757,-0.532,1.738,0.121,0.23,-0.349
531,-7.824,-0.57,1.767,0.129,0.245,-0.348
532,-7.877,-0.594,1.781,0.137,0.255,-0.345
533,-7.92,-0.622,1.791,0.147,0.265,-0.342
534,-7.987,-0.656,1.815,0.161,0.279,-0.337
535,-8.035,-0.68,1.824,0.172,0.289,-0.331
536,-8.088,-0.699,1.834,0.183,0.3,-0.325
537,-8.155,-0.718,1.824,0.198,0.315,-0.316
538,-8.207,-0.728,1.824,0.209,0.328,-0.308
539,-8.26,-0.737,1.815,0.219,0.34,-0.299
540,-8.327,-0.747,1.8,0.23,0.357,-0.286
541,-8.37,-0.742,1.786,0.238,0.371,-0.275
542,-8.437,-0.737,1.767,0.245,0.387,-0.26
543,-8.475,-0.728,1.757,0.248,0.398,-0.248
544,-8.509,-0.723,1.724,0.25,0.408,-0.236
545,-8.547,-0.704,1.695,0.251,0.417,-0.219
546,-8.557,-0.69,1.657,0.249,0.42,-0.207
547,-8.557,-0.666,1.633,0.247,0.419,-0.195
548,-8.557,-0.646,1.614,0.243,0.41,-0.181
549,-8.547,-0.637,1.59,0.24,0.398,-0.172
550,-8.519,-0.622,1.566,0.235,0.382,-0.163
551,-8.475,-0.613,1.551,0.229,0.354,-0.154
552,-8.437,-0.608,1.537,0.225,0.329,-0.149
553,-8.389,-0.613,1.518,0.22,0.301,-0.146
554,-8.14,-0.613,1.437,0.211,0.175,-0.156
555,-8.078,-0.627,1.432,0.211,0.155,-0.162
556,-7.997,-0.632,1.437,0.213,0.135,-0.172
557,-7.93,-0.642,1.427,0.216,0.126,-0.181
558,-7.867,-0.656,1.422,0.22,0.123,-0.191
559,-7.786,-0.67,1.398,0.226,0.125,-0.204
560,-7.724,-0.68,1.393,0.233,0.132,-0.213
561,-7.647,-0.68,1.379,0.244,0.146,-0.224
562,-7.59,-0.685,1.379,0.254,0.158,-0.232
563,-7.532,-0.675,1.374,0.263,0.172,-0.238
564,-7.47,-0.675,1.374,0.276,0.191,-0.244
565,-7.432,-0.666,1.379,0.286,0.205,-0.248
566,-7.403,-0.656,1.369,0.295,0.219,-0.251
567,-7.379,-0.637,1.36,0.304,0.236,-0.252
568,-7.36,-0.632,1.35,0.309,0.246,-0.251
569,-7.35,-0.622,1.341,0.313,0.256,-0.25
570,-7.341,-0.608,1.322,0.314,0.267,-0.248
571,-7.331,-0.603,1.317,0.311,0.274,-0.244
572,-7.341,-0.599,1.298,0.307,0.281,-0.241
573,-7.35,-0.594,1.279,0.297,0.29,-0.235
574,-7.36,-0.589,1.255,0.287,0.296,-0.231
575,-7.374,-0.594,1.24,0.272,0.302,-0.225
576,-7.389,-0.599,1.226,0.259,0.306,-0.22
577,-7.393,-0.603,1.231,0.247,0.309,-0.216
578,-7.393,-0.622,1.231,0.229,0.312,-0.211
579,-7.398,-0.637,1.231,0.217,0.313,-0.208
580,-7.403,-0.661,1.24,0.206,0.314,-0.207
581,-7.412,-0.685,1.235,0.192,0.315,-0.205
582,-7.422,-0.709,1.25,0.182,0.316,-0.205
583,-7.432,-0.737,1.255,0.174,0.317,-0.206
584,-7.436,-0.781,1.25,0.166,0.319,-0.209
585,-7.451,-0.819,1.245,0.161,0.321,-0.211
586,-7.46,-0.857,1.245,0.157,0.325,-0.214
587,-7.489,-0.91,1.235,0.153,0.332,-0.219
588,-7.518,-0.948,1.231,0.153,0.338,-0.224
589,-7.566,-1.006,1.226,0.155,0.349,-0.23
590,-7.599,-1.049,1.216,0.157,0.36,-0.234
591,-7.638,-1.097,1.211,0.161,0.373,-0.238
592,-7.7,-1.154,1.197,0.167,0.393,-0.243
593,-7.762,-1.188,1.188,0.173,0.41,-0.246
594,-7.824,-1.221,1.183,0.18,0.429,-0.246
595,-7.906,-1.269,1.159,0.191,0.457,-0.247
596,-7.977,-1.298,1.144,0.201,0.48,-0.246
597,-8.04,-1.326,1.12,0.211,0.502,-0.243
598,-8.131,-1.36,1.106,0.226,0.531,-0.237
599,-8.207,-1.393,1.087,0.238,0.551,-0.231
600,-8.279,-1.417,1.058,0.251,0.569,-0.224
601,-8.375,-1.446,1.03,0.27,0.589,-0.213
602,-8.442,-1.46,1.006,0.285,0.6,-0.203
603,-8.499,-1.484,0.996,0.301,0.607,-0.192
604,-8.576,-1.504,0.967,0.324,0.61,-0.177
605,-8.633,-1.518,0.953,0.343,0.607,-0.165
606,-8.701,-1.537,0.929,0.369,0.597,-0.149
607,-8.734,-1.556,0.905,0.39,0.585,-0.138
608,-8.782,-1.575,0.891,0.412,0.571,-0.126
609,-8.82,-1.599,0.881,0.442,0.547,-0.112
610,-8.849,-1.614,0.857,0.465,0.528,-0.102
611,-8.878,-1.633,0.833,0.489,0.509,-0.094
612,-8.902,-1.652,0.8,0.522,0.484,-0.084
613,-8.916,-1.671,0.766,0.547,0.467,-0.078
614,-8.935,-1.681,0.747,0.572,0.452,-0.074
615,-8.964,-1.69,0.699,0.604,0.436,-0.068
616,-8.983,-1.695,0.656,0.627,0.428,-0.065
617,-9.007,-1.69,0.637,0.65,0.424,-0.062
618,-9.041,-1.686,0.594,0.678,0.422,-0.059
619,-9.055,-1.676,0.565,0.698,0.426,-0.056
620,-9.088,-1.657,0.522,0.72,0.433,-0.052
621,-9.112,-1.638,0.488,0.734,0.44,-0.049
622,-9.136,-1.618,0.45,0.747,0.449,-0.045
623,-9.17,-1.585,0.397,0.758,0.46,-0.039
624,-9.203,-1.551,0.359,0.762,0.467,-0.034
625,-9.237,-1.518,0.321,0.765,0.473,-0.029
626,-9.285,-1.47,0.278,0.762,0.478,-0.021
627,-9.318,-1.446,0.239,0.756,0.479,-0.015
628,-9.505,-1.307,0.067,0.685,0.452,0.013
629,-9.538,-1.288,0.038,0.661,0.439,0.018
630,-9.562,-1.259,0.029,0.638,0.425,0.022
631,-9.601,-1.231,0.014,0.602,0.402,0.025
632,-9.629,-1.211,0.01,0.575,0.383,0.027
633,-9.644,-1.197,0.0,0.547,0.362,0.028
634,-9.658,-1.183,-0.014,0.509,0.333,0.027
635,-9.673,-1.178,-0.029,0.483,0.311,0.025
636,-9.682,-1.178,-0.038,0.455,0.289,0.021
637,-9.687,-1.183,-0.034,0.42,0.259,0.014
638,-9.682,-1.192,0.0,0.396,0.237,0.007
639,-9.677,-1.207,0.005,0.372,0.217,-0.002
640,-9.668,-1.226,0.029,0.341,0.192,-0.014
641,-9.658,-1.24,0.014,0.319,0.176,-0.024
642,-9.663,-1.255,0.014,0.299,0.164,-0.036
643,-9.673,-1.279,0.034,0.273,0.151,-0.052
644,-9.677,-1.302,0.048,0.254,0.143,-0.065
645,-9.682,-1.326,0.057,0.237,0.138,-0.077
646,-9.697,-1.355,0.086,0.215,0.135,-0.093
647,-9.706,-1.379,0.096,0.2,0.135,-0.105
648,-9.716,-1.413,0.105,0.182,0.138,-0.118
649,-9.725,-1.437,0.115,0.171,0.141,-0.127
650,-9.735,-1.46,0.124,0.161,0.144,-0.135
651,-9.744,-1.484,0.134,0.15,0.149,-0.142
652,-9.749,-1.499,0.144,0.143,0.152,-0.146
653,-9.749,-1.518,0.158,0.139,0.154,-0.149
654,-9.749,-1.547,0.158,0.135,0.154,-0.15
655,-9.754,-1.571,0.153,0.133,0.153,-0.149
656,-9.754,-1.59,0.158,0.134,0.15,-0.147
657,-9.754,-1.604,0.163,0.136,0.143,-0.142
658,-9.744,-1.618,0.163,0.137,0.135,-0.138
659,-9.73,-1.628,0.172,0.141,0.124,-0.133
660,-9.706,-1.638,0.163,0.146,0.109,-0.125
661,-9.687,-1.642,0.134,0.151,0.096,-0.12
662,-9.649,-1.652,0.115,0.158,0.078,-0.112
663,-9.615,-1.657,0.101,0.165,0.062,-0.106
664,-9.586,-1.662,0.091,0.171,0.047,-0.101
665,-9.543,-1.671,0.077,0.18,0.025,-0.094
666,-9.505,-1.671,0.077,0.187,0.007,-0.09
667,-9.471,-1.671,0.067,0.196,-0.011,-0.087
668,-9.419,-1.666,0.072,0.208,-0.035,-0.084
669,-9.39,-1.671,0.067,0.216,-0.052,-0.084
670,-9.357,-1.671,0.057,0.224,-0.069,-0.084
671,-9.313,-1.676,0.057,0.236,-0.088,-0.085
672,-9.29,-1.676,0.057,0.244,-0.101,-0.087
673,-9.251,-1.676,0.057,0.254,-0.114,-0.091
674,-9.232,-1.681,0.067,0.26,-0.121,-0.095
675,-9.203,-1.69,0.072,0.267,-0.125,-0.099
676,-9.17,-1.7,0.081,0.275,-0.127,-0.105
677,-9.141,-1.7,0.086,0.279,-0.127,-0.108
678,-9.122,-1.7,0.091,0.285,-0.125,-0.113
679,-9.098,-1.7,0.105,0.291,-0.119,-0.118
680,-9.084,-1.705,0.115,0.296,-0.114,-0.121
681,-9.05,-1.705,0.124,0.303,-0.107,-0.124
682,-9.041,-1.705,0.134,0.308,-0.101,-0.126
683,-9.031,-1.7,0.144,0.312,-0.095,-0.127
684,-9.031,-1.7,0.158,0.317,-0.086,-0.128
685,-9.026,-1.7,0.182,0.32,-0.079,-0.128
686,-9.026,-1.69,0.187,0.321,-0.073,-0.127
687,-9.021,-1.686,0.192,0.321,-0.064,-0.125
688,-9.021,-1.671,0.201,0.319,-0.059,-0.123
689,-9.026,-1.662,0.206,0.313,-0.053,-0.12
690,-9.041,-1.652,0.201,0.305,-0.049,-0.117
691,-9.045,-1.652,0.196,0.297,-0.045,-0.114
692,-9.108,-1.628,0.168,0.224,-0.029,-0.101
693,-9.117,-1.633,0.168,0.204,-0.025,-0.099
694,-9.136,-1.638,0.163,0.174,-0.021,-0.097
695,-9.151,-1.642,0.158,0.151,-0.017,-0.095
696,-9.155,-1.642,0.158,0.128,-0.014,-0.094
697,-9.16,-1.652,0.144,0.096,-0.011,-0.092
698,-9.165,-1.666,0.144,0.072,-0.009,-0.09
699,-9.179,-1.681,0.148,0.042,-0.007,-0.089
700,-9.189,-1.69,0.144,0.021,-0.007,-0.088
701,-9.189,-1.705,0.148,-0.0,-0.008,-0.087
702,-9.179,-1.724,0.148,-0.026,-0.012,-0.086
703,-9.17,-1.729,0.158,-0.043,-0.017,-0.084
704,-9.17,-1.733,0.148,-0.059,-0.022,-0.084
705,-9.155,-1.757,0.153,-0.077,-0.031,-0.083
706,-9.146,-1.772,0.148,-0.089,-0.04,-0.081
707,-9.127,-1.786,0.163,-0.101,-0.054,-0.079
708,-9.108,-1.791,0.177,-0.108,-0.066,-0.078
709,-9.084,-1.8,0.172,-0.114,-0.079,-0.076
710,-9.041,-1.81,0.182,-0.119,-0.098,-0.074
711,-9.007,-1.81,0.187,-0.12,-0.113,-0.073
712,-8.964,-1.805,0.187,-0.12,-0.133,-0.071
713,-8.93,-1.805,0.187,-0.118,-0.147,-0.069
714,-8.892,-1.8,0.187,-0.115,-0.161,-0.068
715,-8.844,-1.791,0.201,-0.11,-0.179,-0.066
716,-8.801,-1.781,0.215,-0.106,-0.191,-0.066
717,-8.734,-1.781,0.23,-0.099,-0.204,-0.065
718,-8.691,-1.781,0.254,-0.094,-0.212,-0.065
719,-8.648,-1.781,0.273,-0.089,-0.218,-0.065
720,-8.595,-1.781,0.292,-0.082,-0.223,-0.066
721,-8.552,-1.781,0.311,-0.078,-0.225,-0.066
722,-8.519,-1.781,0.321,-0.074,-0.225,-0.067
723,-8.475,-1.791,0.335,-0.069,-0.219,-0.07
724,-8.442,-1.8,0.354,-0.068,-0.212,-0.072
725,-8.413,-1.805,0.378,-0.066,-0.199,-0.074
726,-8.384,-1.815,0.402,-0.065,-0.186,-0.076
727,-8.356,-1.824,0.421,-0.065,-0.171,-0.077
728,-8.279,-1.887,0.484,-0.064,-0.091,-0.077
729,-8.26,-1.906,0.517,-0.063,-0.075,-0.075
730,-8.246,-1.93,0.546,-0.06,-0.055,-0.071
731,-8.241,-1.944,0.555,-0.056,-0.042,-0.068
732,-8.222,-1.978,0.579,-0.05,-0.029,-0.063
733,-8.222,-2.002,0.589,-0.045,-0.02,-0.058
734,-8.212,-2.035,0.599,-0.039,-0.014,-0.053
735,-8.222,-2.054,0.599,-0.03,-0.007,-0.045
736,-8.217,-2.073,0.608,-0.021,-0.003,-0.039
737,-8.222,-2.088,0.608,-0.013,0.001,-0.031
738,-8.222,-2.116,0.613,-0.001,0.006,-0.021
739,-8.222,-2.131,0.622,0.009,0.01,-0.013
740,-8.226,-2.16,0.622,0.022,0.017,-0.001
741,-8.222,-2.174,0.618,0.032,0.022,0.009
742,-8.226,-2.188,0.613,0.042,0.028,0.02
743,-8.236,-2.203,0.618,0.056,0.038,0.034
744,-8.236,-2.203,0.622,0.066,0.046,0.045
745,-8.25,-2.212,0.618,0.075,0.054,0.056
746,-8.26,-2.217,0.613,0.088,0.066,0.072
747,-8.274,-2.212,0.618,0.097,0.077,0.084
748,-8.284,-2.212,0.608,0.105,0.087,0.095
749,-8.298,-2.212,0.599,0.114,0.102,0.111
750,-8.322,-2.207,0.584,0.119,0.114,0.123
751,-8.346,-2.193,0.575,0.124,0.125,0.134
752,-8.38,-2.174,0.565,0.128,0.142,0.149
753,-8.404,-2.16,0.551,0.129,0.156,0.16
754,-8.437,-2.136,0.536,0.13,0.169,0.171
755,-8.48,-2.102,0.508,0.13,0.187,0.185
756,-8.519,-2.069,0.488,0.128,0.201,0.195
757,-8.552,-2.03,0.469,0.126,0.214,0.205
758,-8.595,-1.968,0.431,0.123,0.23,0.218
759,-8.624,-1.92,0.407,0.121,0.242,0.226
760,-8.653,-1.877,0.378,0.118,0.252,0.236
761,-8.701,-1.81,0.34,0.116,0.262,0.248
762,-8.724,-1.757,0.302,0.116,0.267,0.256
763,-8.744,-1.7,0.273,0.115,0.268,0.263
764,-8.758,-1.623,0.239,0.117,0.263,0.272
765,-8.748,-1.566,0.225,0.12,0.253,0.278
766,-8.734,-1.504,0.22,0.125,0.238,0.282
767,-8.701,-1.427,0.22,0.132,0.207,0.286
768,-8.662,-1.374,0.211,0.139,0.175,0.287
769,-8.605,-1.312,0.211,0.147,0.136,0.286
770,-8.514,-1.245,0.211,0.157,0.074,0.28
771,-8.428,-1.192,0.201,0.165,0.022,0.274
772,-8.341,-1.149,0.206,0.171,-0.035,0.264
773,-8.222,-1.097,0.196,0.178,-0.115,0.247
774,-8.121,-1.068,0.187,0.181,-0.176,0.231
775,-8.04,-1.049,0.196,0.18,-0.236,0.213
776,-7.93,-1.02,0.201,0.175,-0.311,0.185
777,-7.863,-0.996,0.196,0.167,-0.361,0.162
778,-7.805,-0.972,0.187,0.155,-0.402,0.137
779,-7.748,-0.939,0.182,0.134,-0.44,0.103
780,-7.724,-0.915,0.177,0.115,-0.453,0.077
781,-7.719,-0.891,0.177,0.084,-0.447,0.043
782,-7.728,-0.876,0.177,0.058,-0.425,0.019
783,-7.757,-0.852,0.172,0.029,-0.39,-0.003
784,-7.819,-0.838,0.163,-0.01,-0.32,-0.03
785,-7.896,-0.838,0.168,-0.041,-0.253,-0.048
786,-7.987,-0.838,0.172,-0.072,-0.177,-0.063
787,-8.145,-0.843,0.158,-0.115,-0.066,-0.079
788,-8.284,-0.857,0.163,-0.146,0.022,-0.088
789,-8.495,-0.891,0.163,-0.189,0.139,-0.098
790,-8.681,-0.915,0.153,-0.222,0.224,-0.101
791,-8.873,-0.939,0.148,-0.254,0.303,-0.103
792,-9.141,-0.967,0.134,-0.296,0.396,-0.101
793,-9.337,-0.991,0.134,-0.328,0.454,-0.097
794,-9.548,-1.006,0.153,-0.36,0.498,-0.09
795,-9.797,-1.02,0.124,-0.399,0.538,-0.077
796,-9.974,-1.025,0.081,-0.426,0.554,-0.065
797,-10.52,-1.006,0.129,-0.505,0.428,0.014
798,-10.568,-0.991,0.163,-0.508,0.349,0.032
799,-10.592,-0.977,0.201,-0.506,0.254,0.049
800,-10.573,-0.953,0.268,-0.494,0.106,0.07
801,-10.525,-0.939,0.316,-0.48,-0.02,0.082
802,-10.424,-0.915,0.373,-0.456,-0.198,0.095
803,-10.324,-0.91,0.421,-0.436,-0.335,0.101
804,-10.204,-0.915,0.46,-0.414,-0.47,0.103
805,-10.022,-0.91,0.512,-0.387,-0.641,0.099
806,-9.874,-0.91,0.532,-0.368,-0.756,0.093
807,-9.716,-0.905,0.57,-0.351,-0.857,0.083
808,-9.505,-0.895,0.613,-0.332,-0.966,0.065
809,-9.342,-0.881,0.646,-0.321,-1.025,0.048
810,-9.127,-0.852,0.699,-0.313,-1.071,0.024
811,-8.964,-0.828,0.723,-0.309,-1.079,0.005
812,-8.811,-0.8,0.737,-0.308,-1.065,-0.016
813,-8.624,-0.752,0.771,-0.311,-1.01,-0.042
814,-8.504,-0.718,0.79,-0.316,-0.946,-0.061
815,-8.399,-0.69,0.804,-0.321,-0.863,-0.079
816,-8.289,-0.651,0.828,-0.331,-0.729,-0.101
817,-8.241,-0.613,0.852,-0.339,-0.615,-0.116
818,-8.207,-0.565,0.876,-0.352,-0.452,-0.133
819,-8.207,-0.527,0.891,-0.361,-0.326,-0.144
820,-8.246,-0.503,0.9,-0.37,-0.199,-0.154
821,-8.327,-0.484,0.915,-0.383,-0.035,-0.164
822,-8.428,-0.455,0.915,-0.393,0.08,-0.169
823,-8.586,-0.421,0.915,-0.406,0.221,-0.175
824,-8.734,-0.407,0.915,-0.416,0.314,-0.179
825,-8.887,-0.393,0.915,-0.425,0.393,-0.18
826,-9.117,-0.378,0.905,-0.436,0.475,-0.18
827,-9.29,-0.378,0.905,-0.442,0.519,-0.18
828,-9.462,-0.373,0.905,-0.448,0.547,-0.178
829,-9.677,-0.378,0.919,-0.454,0.559,-0.175
830,-9.826,-0.393,0.915,-0.456,0.551,-0.172
831,-9.989,-0.417,0.9,-0.455,0.522,-0.168
832,-10.094,-0.436,0.871,-0.452,0.489,-0.165
833,-10.175,-0.464,0.828,-0.445,0.451,-0.162
834,-10.252,-0.527,0.843,-0.431,0.387,-0.159
835,-10.295,-0.584,0.848,-0.417,0.331,-0.159
836,-10.295,-0.838,0.881,-0.311,0.02,-0.167
837,-10.257,-0.876,0.9,-0.28,-0.046,-0.17
838,-10.204,-0.919,0.919,-0.246,-0.109,-0.172
839,-10.108,-0.953,0.943,-0.198,-0.186,-0.175
840,-10.027,-0.972,0.953,-0.16,-0.236,-0.177
841,-9.898,-0.986,0.962,-0.108,-0.295,-0.177
842,-9.787,-0.982,0.986,-0.067,-0.331,-0.177
843,-9.673,-0.977,0.996,-0.028,-0.36,-0.176
844,-9.5,-0.958,1.015,0.025,-0.391,-0.173
845,-9.361,-0.934,1.03,0.064,-0.407,-0.169
846,-9.218,-0.9,1.039,0.102,-0.419,-0.164
847,-9.017,-0.848,1.039,0.15,-0.428,-0.156
848,-8.854,-0.8,1.049,0.183,-0.432,-0.149
849,-8.624,-0.737,1.049,0.224,-0.433,-0.139
850,-8.452,-0.69,1.053,0.253,-0.432,-0.131
851,-8.279,-0.642,1.063,0.279,-0.432,-0.123
852,-8.03,-0.565,1.077,0.31,-0.432,-0.112
853,-7.843,-0.503,1.073,0.331,-0.434,-0.104
854,-7.661,-0.45,1.077,0.35,-0.438,-0.097
855,-7.403,-0.378,1.097,0.372,-0.448,-0.088
856,-7.202,-0.33,1.12,0.387,-0.46,-0.081
857,-6.919,-0.263,1.154,0.404,-0.481,-0.074
858,-6.704,-0.215,1.188,0.417,-0.502,-0.07
859,-6.479,-0.168,1.221,0.429,-0.526,-0.066
860,-6.167,-0.101,1.269,0.444,-0.565,-0.062
861,-5.933,-0.062,1.312,0.456,-0.597,-0.06
862,-5.693,-0.038,1.346,0.467,-0.631,-0.058
863,-5.363,-0.005,1.389,0.481,-0.679,-0.057
864,-5.1,0.014,1.422,0.492,-0.715,-0.058
865,-4.75,0.024,1.465,0.506,-0.762,-0.059
866,-4.468,0.034,1.494,0.517,-0.796,-0.062
867,-4.166,0.038,1.508,0.528,-0.828,-0.064
868,-3.735,0.024,1.518,0.546,-0.866,-0.069
869,-3.405,0.019,1.518,0.561,-0.891,-0.073
870,-3.055,0.01,1.513,0.579,-0.914,-0.076
871,-2.567,-0.005,1.48,0.609,-0.941,-0.079
872,-2.184,-0.019,1.46,0.638,-0.962,-0.081
873,-1.796,-0.034,1.451,0.671,-0.982,-0.082
874,-1.25,-0.043,1.432,0.725,-1.012,-0.082
875,-0.833,-0.034,1.403,0.771,-1.037,-0.08
876,-0.273,-0.024,1.36,0.841,-1.072,-0.077
877,0.148,-0.01,1.317,0.899,-1.099,-0.073
878,0.575,0.01,1.25,0.962,-1.126,-0.067
879,1.144,0.043,1.14,1.051,-1.158,-0.058
880,1.547,0.077,1.039,1.121,-1.177,-0.05
881,1.949,0.11,0.934,1.191,-1.19,-0.041
882,2.461,0.158,0.766,1.286,-1.193,-0.029
883,2.811,0.196,0.646,1.355,-1.183,-0.021
884,3.141,0.23,0.503,1.42,-1.161,-0.014
885,3.534,0.259,0.321,1.501,-1.108,-0.007
886,4.281,0.378,-0.211,1.68,-0.757,-0.003
887,4.319,0.407,-0.287,1.7,-0.643,-0.006
888,4.281,0.46,-0.383,1.711,-0.48,-0.009
889,4.185,0.498,-0.431,1.707,-0.351,-0.011
890,3.97,0.532,-0.484,1.69,-0.174,-0.009
891,3.754,0.56,-0.517,1.666,-0.04,-0.006
892,3.491,0.589,-0.536,1.632,0.094,-0.001
893,3.074,0.632,-0.565,1.573,0.269,0.012
894,2.725,0.661,-0.579,1.519,0.396,0.027
895,2.346,0.704,-0.589,1.458,0.518,0.046
896,1.796,0.752,-0.622,1.365,0.672,0.079
897,1.365,0.795,-0.642,1.287,0.779,0.11
898,0.919,0.838,-0.661,1.205,0.88,0.146
899,0.46,0.881,-0.67,1.117,0.973,0.186
900,-0.158,0.924,-0.685,0.995,1.08,0.246
901,-0.622,0.958,-0.69,0.9,1.147,0.295
902,-1.073,0.986,-0.699,0.802,1.201,0.347
903,-1.671,1.015,-0.713,0.67,1.25,0.418
904,-2.102,1.034,-0.718,0.568,1.269,0.472
905,-2.662,1.044,-0.718,0.432,1.271,0.542
906,-3.05,1.044,-0.709,0.331,1.254,0.591
907,-3.433,1.034,-0.699,0.229,1.222,0.637
908,-3.912,1.015,-0.666,0.096,1.155,0.691
909,-4.238,0.996,-0.637,-0.002,1.09,0.725
910,-4.544,0.972,-0.603,-0.098,1.011,0.752
911,-4.899,0.919,-0.541,-0.221,0.891,0.778
912,-5.138,0.871,-0.488,-0.31,0.792,0.789
913,-5.349,0.814,-0.441,-0.394,0.688,0.792
914,-5.574,0.737,-0.383,-0.501,0.545,0.785
915,-5.708,0.675,-0.335,-0.577,0.439,0.771
916,-5.799,0.608,-0.297,-0.649,0.336,0.752
917,-5.885,0.512,-0.225,-0.738,0.206,0.717
918,-5.918,0.436,-0.177,-0.801,0.117,0.685
919,-5.933,0.369,-0.12,-0.86,0.038,0.648
920,-5.914,0.283,-0.043,-0.934,-0.051,0.595
921,-5.88,0.211,0.024,-0.985,-0.106,0.554
922,-5.818,0.12,0.129,-1.047,-0.159,0.496
923,-5.765,0.048,0.211,-1.09,-0.185,0.454
924,-5.717,-0.019,0.302,-1.131,-0.197,0.412
925,-5.65,-0.12,0.397,-1.179,-0.191,0.36
926,-5.631,-0.196,0.474,-1.213,-0.169,0.324
927,-5.622,-0.278,0.541,-1.244,-0.131,0.29
928,-5.636,-0.388,0.618,-1.283,-0.053,0.253
929,-5.674,-0.46,0.666,-1.309,0.025,0.231
930,-5.741,-0.532,0.709,-1.333,0.12,0.213
931,-5.866,-0.632,0.747,-1.361,0.273,0.199
932,-5.995,-0.699,0.766,-1.378,0.404,0.197
933,-6.22,-0.776,0.776,-1.395,0.597,0.201
934,-6.421,-0.828,0.771,-1.402,0.754,0.211
935,-6.646,-0.876,0.747,-1.404,0.918,0.228
936,-6.996,-0.934,0.704,-1.399,1.144,0.259
937,-7.298,-0.977,0.661,-1.388,1.314,0.288
938,-7.614,-1.006,0.613,-1.372,1.479,0.321
939,-8.068,-1.053,0.555,-1.342,1.686,0.371
940,-8.428,-1.077,0.512,-1.314,1.825,0.412
941,-8.801,-1.106,0.455,-1.28,1.949,0.454
942,-9.309,-1.13,0.369,-1.229,2.083,0.512
943,-9.697,-1.13,0.302,-1.187,2.156,0.555
944,-10.075,-1.125,0.263,-1.14,2.206,0.6
945,-10.592,-1.202,0.206,-1.074,2.228,0.648
946,-10.989,-1.35,0.168,-1.013,2.205,0.658
947,-11.449,-1.389,0.043,-0.91,2.124,0.632
948,-11.751,-1.341,-0.067,-0.815,2.034,0.599
949,-12.009,-1.279,-0.12,-0.708,1.918,0.563
950,-12.273,-1.164,-0.249,-0.558,1.737,0.517
951,-12.421,-1.082,-0.35,-0.447,1.589,0.492
952,-12.536,-1.03,-0.455,-0.346,1.441,0.477
953,-12.661,-1.015,-0.56,-0.235,1.245,0.467
954,-12.752,-1.03,-0.603,-0.175,1.102,0.467
955,-12.833,-1.049,-0.622,-0.13,0.962,0.469
956,-12.943,-1.077,-0.613,-0.092,0.786,0.476
957,-13.278,-0.867,-0.311,-0.027,0.314,0.512
958,-13.345,-0.771,-0.254,-0.001,0.21,0.522
959,-13.364,-0.69,-0.254,0.022,0.15,0.525
960,-13.36,-0.575,-0.263,0.053,0.097,0.519
961,-13.345,-0.474,-0.268,0.073,0.074,0.507
962,-13.326,-0.378,-0.283,0.086,0.065,0.489
963,-13.302,-0.225,-0.321,0.088,0.072,0.455
964,-13.317,-0.11,-0.364,0.074,0.091,0.424
965,-13.355,0.01,-0.436,0.044,0.121,0.389
966,-13.47,0.153,-0.618,-0.02,0.183,0.338
967,-13.628,0.268,-0.79,-0.086,0.252,0.298
968,-13.853,0.397,-0.958,-0.165,0.341,0.255
969,-14.298,0.613,-1.173,-0.282,0.49,0.201
970,-14.748,0.8,-1.317,-0.372,0.624,0.165
971,-15.289,1.015,-1.456,-0.458,0.773,0.135
972,-16.166,1.331,-1.628,-0.558,0.994,0.107
973,-16.917,1.571,-1.757,-0.616,1.171,0.094
974,-17.985,1.896,-1.949,-0.668,1.415,0.089
975,-18.804,2.112,-2.126,-0.685,1.595,0.093
976,-19.575,2.294,-2.207,-0.684,1.763,0.097
977,-20.49,2.466,-2.351,-0.659,1.943,0.101
978,-21.088,2.523,-2.37,-0.625,2.033,0.095
979,-21.548,2.514,-2.322,-0.582,2.062,0.076
980,-21.917,2.404,-2.327,-0.514,1.986,0.025
981,-21.998,2.279,-2.375,-0.46,1.842,-0.033
982,-21.945,2.14,-2.433,-0.403,1.625,-0.109
983,-21.725,1.949,-2.428,-0.329,1.228,-0.232
984,-21.514,1.824,-2.318,-0.276,0.856,-0.337
985,-21.232,1.7,-2.107,-0.215,0.282,-0.483
986,-21.04,1.623,-1.954,-0.179,-0.18,-0.593
987,-20.853,1.556,-1.896,-0.155,-0.642,-0.701
988,-20.614,1.489,-1.982,-0.142,-1.204,-0.836
989,-20.432,1.475,-2.097,-0.146,-1.553,-0.927
990,-20.226,1.499,-2.16,-0.159,-1.826,-1.005
991,-19.905,1.561,-2.188,-0.182,-2.058,-1.087
992,-19.609,1.604,-2.155,-0.2,-2.128,-1.13
993,-16.975,1.015,-2.878,-0.13,-1.48,-1.201
994,-16.017,0.474,-3.898,-0.069,-1.164,-1.223
995,-14.547,-0.488,-6.172,0.028,-0.605,-1.283
996,-13.537,-1.341,-7.834,0.11,-0.079,-1.357
997,-12.828,-2.251,-8.94,0.193,0.494,-1.461
998,-12.598,-3.424,-9.409,0.3,1.233,-1.644
999,-13.321,-4.041,-8.662,0.378,1.703,-1.811
1000,-16.108,-3.874,-5.741,0.498,2.089,-2.038
1001,-19.853,-2.595,-2.471,0.632,2.123,-2.157
1002,-24.794,-0.34,0.57,0.839,1.95,-2.164
1003,-32.528,3.424,3.232,1.263,1.588,-1.928
1004,-38.14,5.895,4.463,1.672,1.336,-1.557
1005,-42.368,7.389,5.459,2.108,1.089,-1.073
1006,-44.484,7.479,6.177,2.65,0.648,-0.394
1007,-43.661,6.45,6.167,2.978,0.165,0.044
1008,-41.659,4.937,6.062,3.208,-0.469,0.378
1009,-38.288,2.787,6.594,3.331,-1.552,0.655
1010,-35.678,1.427,7.638,3.291,-2.528,0.755
1011,-33.069,0.46,9.036,3.161,-3.6,0.792
1012,-29.501,-0.297,10.841,2.894,-4.366,0.787
1013,-26.609,-0.618,12.282,2.665,-4.366,0.765
1014,-23.181,-0.905,13.24,2.427,-4.366,0.732
1015,-17.123,-1.24,12.933,2.072,-4.366,0.666
1016,-11.76,-1.604,11.641,1.759,-4.366,0.599
1017,-6.871,-2.184,10.831,1.419,-4.366,0.522
1018,-1.872,-3.381,10.716,0.959,-4.366,0.411
1019,1.159,-4.544,10.616,0.635,-3.247,0.31
1020,4.573,-6.206,9.625,0.273,-1.831,0.14
1021,6.105,-7.369,8.782,0.044,-0.895,-0.015
1022,6.742,-8.37,8.045,-0.166,-0.1,-0.194
1023,6.498,-9.251,6.981,-0.444,0.736,-0.452
1024,5.631,-9.495,5.976,-0.656,1.232,-0.644
1025,4.286,-9.366,4.951,-0.863,1.661,-0.809
1026,1.858,-8.696,3.955,-1.095,2.172,-0.955
1027,-0.354,-7.944,3.577,-1.212,2.523,-0.989
1028,-2.854,-7.049,3.438,-1.264,2.85,-0.947
1029,-6.665,-5.737,3.673,-1.227,3.246,-0.766
1030,-9.802,-4.798,3.946,-1.124,3.506,-0.539
1031,-14.131,-3.831,4.046,-0.908,3.805,-0.141
1032,-17.363,-3.419,3.994,-0.702,3.986,0.196
1033,-20.533,-3.309,3.941,-0.476,4.11,0.529
1034,-24.483,-3.438,4.123,-0.164,4.124,0.921
1035,-27.112,-3.534,4.391,0.072,3.964,1.153
1036,-29.295,-3.476,4.736,0.311,3.614,1.33
1037,-32.044,-1.116,4.961,1.537,-0.416,1.831
1038,-31.302,-0.445,4.357,1.771,-1.472,1.947
1039,-29.688,0.426,3.328,2.004,-2.74,2.122
1040,-28.06,1.058,2.409,2.1,-3.505,2.262
1041,-26.173,1.666,1.528,2.123,-4.071,2.402
1042,-23.329,2.442,0.397,2.035,-4.366,2.579
1043,-21.012,2.974,-0.632,1.897,-4.366,2.696
1044,-18.694,3.462,-1.8,1.711,-4.366,2.794
1045,-15.864,4.051,-3.002,1.423,-3.843,2.886
1046,-13.992,4.367,-3.649,1.21,-3.262,2.918
1047,-12.383,4.544,-4.319,1.024,-2.567,2.911
1048,-10.702,4.559,-5.511,0.826,-1.491,2.829
1049,-9.821,4.367,-6.474,0.708,-0.605,2.707
1050,-9.246,3.941,-7.288,0.608,0.307,2.526
1051,-8.882,3.036,-8.097,0.5,1.475,2.182
1052,-8.878,2.236,-8.499,0.439,2.253,1.843
1053,-9.194,1.168,-8.782,0.373,3.08,1.295
1054,-9.639,0.527,-8.926,0.33,3.495,0.829
1055,-10.271,0.062,-9.108,0.293,3.731,0.336
1056,-11.353,-0.187,-9.218,0.253,3.764,-0.331
1057,-12.301,-0.086,-9.266,0.228,3.597,-0.809
1058,-13.293,0.22,-9.28,0.202,3.292,-1.242
1059,-14.609,0.824,-9.232,0.155,2.723,-1.723
1060,-15.495,1.393,-9.189,0.1,2.204,-1.997
1061,-16.17,1.973,-9.208,0.016,1.64,-2.182
1062,-16.759,2.629,-9.208,-0.164,0.873,-2.296
1063,-16.917,3.031,-9.088,-0.335,0.298,-2.284
1064,-16.874,3.27,-8.844,-0.526,-0.265,-2.2
1065,-16.458,3.39,-8.456,-0.812,-0.984,-2.0
1066,-15.955,3.28,-8.131,-1.043,-1.494,-1.8
1067,-15.165,2.902,-7.575,-1.395,-2.102,-1.512
1068,-14.456,2.682,-7.005,-1.659,-2.508,-1.299
1069,-13.685,2.576,-6.287,-1.89,-2.87,-1.076
1070,-12.584,2.409,-5.262,-2.132,-3.283,-0.753
1071,-11.679,2.145,-4.568,-2.27,-3.523,-0.505
1072,-10.448,1.676,-3.687,-2.407,-3.731,-0.193
1073,-9.51,1.312,-3.065,-2.477,-3.803,0.015
1074,-8.547,0.943,-2.523,-2.523,-3.802,0.196
1075,-7.274,0.412,-1.891,-2.554,-3.682,0.388
1076,-6.349,0.038,-1.504,-2.556,-3.505,0.488
1077,-5.473,-0.283,-1.173,-2.541,-3.255,0.55
1078,-4.439,-0.599,-0.761,-2.493,-2.828,0.58
1079,-2.49,-1.12,0.441,-2.117,-1.032,0.381
1080,-2.428,-1.14,0.742,-1.942,-0.466,0.264
1081,-2.543,-1.125,0.943,-1.803,-0.064,0.169
1082,-2.887,-1.087,1.159,-1.617,0.432,0.041
1083,-3.261,-1.03,1.288,-1.484,0.769,-0.052
1084,-3.721,-0.929,1.36,-1.363,1.074,-0.138
1085,-4.434,-0.776,1.365,-1.226,1.435,-0.237
1086,-5.037,-0.632,1.326,-1.144,1.674,-0.296
1087,-5.684,-0.474,1.293,-1.082,1.885,-0.341
1088,-6.594,-0.259,1.211,-1.026,2.121,-0.373
1089,-7.278,-0.101,1.125,-1.001,2.261,-0.375
1090,-8.198,0.096,1.034,-0.987,2.398,-0.351
1091,-8.863,0.23,0.977,-0.987,2.46,-0.314
1092,-9.495,0.34,0.943,-0.993,2.481,-0.264
1093,-10.276,0.46,0.891,-1.007,2.449,-0.18
1094,-10.793,0.522,0.886,-1.019,2.377,-0.109
1095,-11.258,0.56,0.876,-1.031,2.263,-0.034
1096,-11.775,0.589,0.852,-1.047,2.056,0.067
1097,-12.072,0.584,0.881,-1.055,1.863,0.14
1098,-12.292,0.56,0.895,-1.063,1.644,0.208
1099,-12.464,0.508,0.843,-1.072,1.328,0.288
1100,-12.517,0.464,0.833,-1.076,1.086,0.338
1101,-12.522,0.421,0.857,-1.08,0.84,0.377
1102,-12.431,0.34,0.891,-1.084,0.514,0.413
1103,-12.306,0.297,0.929,-1.085,0.279,0.43
1104,-12.134,0.254,0.958,-1.086,0.056,0.436
1105,-11.851,0.206,1.006,-1.084,-0.211,0.431
1106,-11.607,0.163,1.034,-1.08,-0.385,0.419
1107,-11.339,0.129,1.063,-1.076,-0.531,0.399
1108,-10.956,0.091,1.13,-1.068,-0.682,0.366
1109,-10.645,0.062,1.173,-1.062,-0.762,0.335
1110,-10.223,0.019,1.221,-1.056,-0.823,0.289
1111,-9.902,0.0,1.264,-1.054,-0.835,0.25
1112,-9.596,-0.024,1.288,-1.054,-0.82,0.212
1113,-9.218,-0.053,1.302,-1.056,-0.76,0.16
1114,-8.95,-0.081,1.331,-1.06,-0.69,0.122
1115,-8.72,-0.115,1.336,-1.067,-0.599,0.086
1116,-8.466,-0.172,1.341,-1.079,-0.452,0.04
1117,-8.317,-0.225,1.341,-1.09,-0.326,0.006
1118,-8.207,-0.292,1.35,-1.101,-0.19,-0.025
1119,-8.131,-0.397,1.355,-1.116,0.0,-0.064
1120,-8.121,-0.484,1.374,-1.124,0.146,-0.092
1121,-8.179,-0.608,1.374,-1.13,0.339,-0.127
1122,-8.27,-0.694,1.369,-1.13,0.479,-0.152
1123,-8.399,-0.781,1.374,-1.128,0.614,-0.175
1124,-8.619,-0.891,1.36,-1.118,0.779,-0.202
1125,-8.815,-0.962,1.346,-1.106,0.891,-0.218
1126,-9.021,-1.03,1.331,-1.092,0.99,-0.231
1127,-9.313,-1.092,1.298,-1.069,1.098,-0.239
1128,-9.548,-1.125,1.264,-1.049,1.16,-0.237
1129,-10.525,-1.173,1.058,-0.95,1.214,-0.138
1130,-10.688,-1.188,1.015,-0.927,1.175,-0.1
1131,-10.855,-1.202,0.948,-0.895,1.101,-0.044
1132,-10.942,-1.216,0.915,-0.869,1.03,0.0
1133,-11.013,-1.245,0.891,-0.841,0.946,0.045
1134,-11.042,-1.288,0.828,-0.802,0.821,0.101
1135,-11.037,-1.317,0.781,-0.77,0.721,0.141
1136,-10.994,-1.35,0.718,-0.735,0.62,0.178
1137,-10.908,-1.374,0.68,-0.686,0.485,0.22
1138,-10.822,-1.398,0.656,-0.645,0.383,0.246
1139,-10.712,-1.398,0.613,-0.603,0.281,0.267
1140,-10.554,-1.398,0.584,-0.543,0.149,0.288
1141,-10.42,-1.374,0.555,-0.496,0.054,0.298
1142,-10.238,-1.331,0.546,-0.433,-0.061,0.304
1143,-10.089,-1.283,0.532,-0.386,-0.139,0.304
1144,-9.941,-1.221,0.517,-0.34,-0.208,0.301
1145,-9.735,-1.135,0.493,-0.282,-0.285,0.29
1146,-9.577,-1.063,0.479,-0.241,-0.329,0.279
1147,-9.424,-0.991,0.45,-0.205,-0.362,0.265
1148,-9.218,-0.895,0.431,-0.16,-0.389,0.242
1149,-9.079,-0.824,0.421,-0.132,-0.395,0.221
1150,-8.892,-0.728,0.421,-0.1,-0.39,0.19
1151,-8.758,-0.646,0.417,-0.082,-0.377,0.167
1152,-8.629,-0.565,0.417,-0.067,-0.358,0.141
1153,-8.475,-0.474,0.402,-0.054,-0.327,0.107
1154,-8.361,-0.402,0.407,-0.049,-0.302,0.08
1155,-8.265,-0.33,0.407,-0.046,-0.276,0.054
1156,-8.15,-0.244,0.431,-0.047,-0.243,0.019
1157,-8.068,-0.172,0.445,-0.05,-0.22,-0.007
1158,-7.997,-0.105,0.469,-0.057,-0.201,-0.032
1159,-7.925,-0.01,0.503,-0.068,-0.179,-0.062
1160,-7.887,0.062,0.546,-0.079,-0.167,-0.084
1161,-7.853,0.158,0.579,-0.096,-0.155,-0.112
1162,-7.843,0.23,0.603,-0.111,-0.149,-0.13
1163,-7.829,0.302,0.642,-0.127,-0.147,-0.145
1164,-7.829,0.383,0.699,-0.149,-0.146,-0.164
1165,-7.829,0.436,0.742,-0.166,-0.147,-0.176
1166,-7.829,0.503,0.776,-0.191,-0.148,-0.189
1167,-7.829,0.551,0.8,-0.209,-0.15,-0.197
1168,-7.824,0.599,0.819,-0.227,-0.151,-0.205
1169,-7.815,0.646,0.848,-0.251,-0.153,-0.215
1170,-7.791,0.675,0.871,-0.269,-0.155,-0.221
1171,-7.681,0.761,0.948,-0.343,-0.174,-0.253
1172,-7.633,0.761,0.967,-0.358,-0.182,-0.261
1173,-7.594,0.761,0.972,-0.37,-0.191,-0.271
1174,-7.537,0.761,0.991,-0.386,-0.205,-0.284
1175,-7.484,0.757,0.996,-0.397,-0.216,-0.296
1176,-7.432,0.742,1.006,-0.406,-0.226,-0.309
1177,-7.36,0.718,1.015,-0.418,-0.242,-0.327
1178,-7.312,0.709,1.02,-0.426,-0.252,-0.341
1179,-7.254,0.685,1.02,-0.434,-0.264,-0.362
1180,-7.211,0.67,1.015,-0.439,-0.271,-0.379
1181,-7.178,0.646,1.025,-0.444,-0.274,-0.396
1182,-7.135,0.618,1.025,-0.449,-0.273,-0.419
1183,-7.12,0.589,1.034,-0.453,-0.268,-0.435
1184,-7.106,0.565,1.034,-0.454,-0.257,-0.452
1185,-7.111,0.536,1.049,-0.456,-0.237,-0.472
1186,-7.106,0.512,1.049,-0.457,-0.217,-0.486
1187,-7.116,0.493,1.073,-0.456,-0.185,-0.502
1188,-7.125,0.474,1.092,-0.454,-0.159,-0.512
1189,-7.14,0.45,1.111,-0.451,-0.13,-0.52
1190,-7.149,0.417,1.13,-0.447,-0.091,-0.527
1191,-7.159,0.397,1.135,-0.442,-0.064,-0.53
1192,-7.168,0.383,1.154,-0.437,-0.037,-0.531
1193,-7.187,0.369,1.159,-0.43,-0.006,-0.528
1194,-7.192,0.345,1.154,-0.424,0.014,-0.523
1195,-7.207,0.316,1.159,-0.416,0.035,-0.514
1196,-7.226,0.297,1.154,-0.409,0.045,-0.506
1197,-7.24,0.278,1.159,-0.404,0.052,-0.496
1198,-7.245,0.259,1.149,-0.396,0.055,-0.479
1199,-7.24,0.254,1.149,-0.391,0.052,-0.466
1200,-7.24,0.254,1.14,-0.387,0.044,-0.451
1201,-7.23,0.254,1.13,-0.383,0.026,-0.43
1202,-7.226,0.259,1.125,-0.381,0.009,-0.413
1203,-7.216,0.268,1.12,-0.38,-0.011,-0.396
1204,-7.202,0.278,1.097,-0.381,-0.041,-0.371
1205,-7.183,0.287,1.087,-0.383,-0.065,-0.353
1206,-7.159,0.302,1.053,-0.387,-0.096,-0.33
1207,-7.144,0.311,1.03,-0.391,-0.118,-0.314
1208,-7.116,0.316,1.001,-0.397,-0.137,-0.298
1209,-7.087,0.326,0.943,-0.406,-0.157,-0.279
1210,-7.063,0.33,0.919,-0.413,-0.168,-0.267
1211,-7.039,0.335,0.895,-0.421,-0.175,-0.256
1212,-7.01,0.34,0.871,-0.432,-0.178,-0.243
1213,-6.991,0.34,0.857,-0.441,-0.176,-0.236
1214,-6.977,0.345,0.843,-0.449,-0.171,-0.231
1215,-6.953,0.345,0.833,-0.461,-0.16,-0.227
1216,-6.934,0.34,0.833,-0.469,-0.148,-0.225
1217,-6.895,0.345,0.809,-0.478,-0.131,-0.226
1218,-6.881,0.34,0.809,-0.484,-0.118,-0.229
1219,-6.867,0.335,0.814,-0.489,-0.106,-0.233
1220,-6.847,0.33,0.809,-0.494,-0.09,-0.24
1221,-6.847,0.306,0.8,-0.5,-0.07,-0.278
1222,-6.862,0.283,0.809,-0.5,-0.072,-0.292
1223,-6.871,0.273,0.814,-0.499,-0.076,-0.304
1224,-6.886,0.259,0.814,-0.499,-0.08,-0.316
1225,-6.91,0.244,0.819,-0.499,-0.086,-0.331
1226,-6.924,0.22,0.814,-0.499,-0.091,-0.343
1227,-6.953,0.187,0.809,-0.499,-0.097,-0.358
1228,-6.981,0.158,0.814,-0.499,-0.102,-0.368
1229,-7.001,0.134,0.828,-0.499,-0.106,-0.377
1230,-7.02,0.091,0.838,-0.497,-0.11,-0.389
1231,-7.044,0.062,0.848,-0.495,-0.113,-0.397
1232,-7.058,0.034,0.857,-0.493,-0.115,-0.403
1233,-7.077,-0.024,0.876,-0.487,-0.118,-0.411
1234,-7.082,-0.067,0.891,-0.481,-0.118,-0.417
1235,-7.077,-0.129,0.915,-0.471,-0.12,-0.422
1236,-7.087,-0.177,0.924,-0.462,-0.121,-0.424
1237,-7.087,-0.22,0.929,-0.449,-0.122,-0.427
1238,-7.082,-0.263,0.953,-0.43,-0.122,-0.429
1239,-7.072,-0.306,0.972,-0.414,-0.122,-0.43
1240,-7.068,-0.34,0.986,-0.395,-0.122,-0.431
1241,-7.044,-0.388,1.015,-0.367,-0.122,-0.431
1242,-7.025,-0.421,1.039,-0.343,-0.122,-0.43
1243,-6.996,-0.474,1.073,-0.309,-0.123,-0.429
1244,-6.962,-0.498,1.082,-0.281,-0.125,-0.427
1245,-6.929,-0.522,1.087,-0.252,-0.128,-0.425
1246,-6.871,-0.555,1.125,-0.21,-0.133,-0.423
1247,-6.833,-0.579,1.14,-0.177,-0.137,-0.421
1248,-6.785,-0.603,1.178,-0.133,-0.145,-0.418
1249,-6.747,-0.622,1.197,-0.099,-0.152,-0.415
1250,-6.704,-0.632,1.207,-0.065,-0.159,-0.412
1251,-6.637,-0.637,1.221,-0.02,-0.166,-0.409
1252,-6.584,-0.632,1.235,0.011,-0.171,-0.406
1253,-6.527,-0.637,1.235,0.051,-0.175,-0.402
1254,-6.479,-0.642,1.24,0.078,-0.175,-0.4
1255,-6.436,-0.637,1.231,0.103,-0.172,-0.397
1256,-6.397,-0.627,1.211,0.132,-0.165,-0.394
1257,-6.359,-0.627,1.211,0.151,-0.156,-0.392
1258,-6.33,-0.632,1.207,0.167,-0.145,-0.39
1259,-6.297,-0.637,1.192,0.183,-0.125,-0.387
1260,-6.273,-0.632,1.164,0.192,-0.108,-0.385
1261,-6.22,-0.646,1.13,0.204,-0.01,-0.377
1262,-6.215,-0.656,1.116,0.203,0.011,-0.376
1263,-6.206,-0.666,1.106,0.197,0.038,-0.374
1264,-6.211,-0.685,1.116,0.193,0.056,-0.373
1265,-6.225,-0.704,1.116,0.187,0.072,-0.372
1266,-6.244,-0.723,1.097,0.179,0.092,-0.37
1267,-6.263,-0.742,1.092,0.173,0.106,-0.371
1268,-6.292,-0.771,1.058,0.165,0.119,-0.371
1269,-6.345,-0.8,1.063,0.156,0.136,-0.371
1270,-6.393,-0.824,1.053,0.149,0.149,-0.372
1271,-6.44,-0.843,1.044,0.141,0.163,-0.372
1272,-6.527,-0.876,1.03,0.131,0.183,-0.372
1273,-6.608,-0.905,1.015,0.125,0.2,-0.372
1274,-6.685,-0.924,1.001,0.118,0.219,-0.372
1275,-6.795,-0.958,0.991,0.11,0.247,-0.372
1276,-6.895,-0.986,0.982,0.104,0.27,-0.371
1277,-6.996,-1.02,0.982,0.099,0.295,-0.37
1278,-7.13,-1.073,0.967,0.093,0.33,-0.369
1279,-7.245,-1.111,0.943,0.088,0.357,-0.367
1280,-7.412,-1.164,0.915,0.083,0.394,-0.364
1281,-7.537,-1.207,0.905,0.08,0.423,-0.362
1282,-7.657,-1.245,0.891,0.078,0.451,-0.359
1283,-7.839,-1.302,0.871,0.075,0.487,-0.354
1284,-7.977,-1.35,0.862,0.075,0.514,-0.35
1285,-8.121,-1.389,0.848,0.075,0.539,-0.345
1286,-8.317,-1.446,0.833,0.077,0.569,-0.337
1287,-8.456,-1.489,0.809,0.08,0.588,-0.33
1288,-8.595,-1.528,0.781,0.085,0.606,-0.323
1289,-8.787,-1.58,0.761,0.094,0.624,-0.311
1290,-8.926,-1.609,0.757,0.102,0.633,-0.3
1291,-9.055,-1.642,0.747,0.114,0.638,-0.289
1292,-9.232,-1.686,0.737,0.132,0.639,-0.272
1293,-9.347,-1.714,0.718,0.147,0.635,-0.258
1294,-9.481,-1.733,0.694,0.172,0.622,-0.239
1295,-9.577,-1.753,0.694,0.193,0.608,-0.223
1296,-9.658,-1.762,0.68,0.215,0.59,-0.207
1297,-9.74,-1.767,0.68,0.246,0.561,-0.185
1298,-9.787,-1.767,0.67,0.27,0.535,-0.168
1299,-9.835,-1.767,0.666,0.296,0.507,-0.152
1300,-9.864,-1.767,0.666,0.331,0.468,-0.131
1301,-9.874,-1.757,0.67,0.357,0.436,-0.117
1302,-9.869,-1.743,0.68,0.383,0.402,-0.103
1303,-9.845,-1.724,0.704,0.417,0.357,-0.086
1304,-9.802,-1.714,0.718,0.443,0.325,-0.076
1305,-9.749,-1.7,0.723,0.467,0.292,-0.066
1306,-9.673,-1.666,0.737,0.499,0.252,-0.056
1307,-9.601,-1.638,0.752,0.523,0.224,-0.051
1308,-9.481,-1.599,0.771,0.554,0.191,-0.046
1309,-9.39,-1.571,0.776,0.577,0.17,-0.043
1310,-9.285,-1.537,0.795,0.6,0.151,-0.043
1311,-9.127,-1.484,0.785,0.629,0.132,-0.045
1312,-9.012,-1.441,0.795,0.65,0.12,-0.048
1313,-8.892,-1.403,0.8,0.671,0.11,-0.052
1314,-8.724,-1.355,0.814,0.698,0.101,-0.06
1315,-8.595,-1.317,0.819,0.717,0.095,-0.069
1316,-8.461,-1.269,0.824,0.734,0.091,-0.078
1317,-8.294,-1.216,0.828,0.755,0.087,-0.093
1318,-8.174,-1.183,0.833,0.77,0.086,-0.106
1319,-8.049,-1.144,0.843,0.781,0.085,-0.119
1320,-7.891,-1.101,0.838,0.792,0.084,-0.138
1321,-7.786,-1.073,0.833,0.799,0.084,-0.153
1322,-7.657,-1.025,0.833,0.803,0.087,-0.175
1323,-7.566,-1.001,0.833,0.802,0.089,-0.192
1324,-7.489,-0.982,0.824,0.798,0.094,-0.209
1325,-7.403,-0.948,0.824,0.789,0.102,-0.231
1326,-7.341,-0.919,0.814,0.779,0.111,-0.248
1327,-7.302,-0.905,0.809,0.766,0.122,-0.264
1328,-7.254,-0.891,0.795,0.747,0.142,-0.284
1329,-7.245,-0.876,0.795,0.73,0.16,-0.298
1330,-7.25,-0.871,0.785,0.71,0.181,-0.311
1331,-7.278,-0.867,0.766,0.683,0.212,-0.326
1332,-7.302,-0.871,0.766,0.662,0.24,-0.335
1333,-7.341,-0.881,0.757,0.639,0.268,-0.343
1334,-7.412,-0.905,0.747,0.608,0.31,-0.349
1335,-7.728,-1.03,0.718,0.502,0.442,-0.351
1336,-7.858,-1.087,0.723,0.469,0.475,-0.345
1337,-7.954,-1.125,0.723,0.446,0.495,-0.339
1338,-8.073,-1.183,0.723,0.416,0.516,-0.33
1339,-8.15,-1.231,0.713,0.395,0.526,-0.321
1340,-8.231,-1.288,0.718,0.375,0.529,-0.311
1341,-8.341,-1.365,0.728,0.351,0.527,-0.296
1342,-8.413,-1.422,0.733,0.336,0.519,-0.284
1343,-8.485,-1.484,0.737,0.322,0.508,-0.27
1344,-8.586,-1.571,0.757,0.306,0.487,-0.251
1345,-8.653,-1.638,0.771,0.297,0.469,-0.236
1346,-8.715,-1.705,0.771,0.288,0.449,-0.222
1347,-8.801,-1.781,0.776,0.279,0.422,-0.201
1348,-8.859,-1.844,0.781,0.273,0.404,-0.185
1349,-8.921,-1.906,0.785,0.27,0.388,-0.17
1350,-9.002,-1.978,0.785,0.266,0.371,-0.148
1351,-9.055,-2.025,0.776,0.262,0.362,-0.131
1352,-9.117,-2.083,0.766,0.261,0.359,-0.114
1353,-9.203,-2.15,0.752,0.259,0.361,-0.091
1354,-9.266,-2.198,0.742,0.258,0.367,-0.073
1355,-9.361,-2.255,0.723,0.257,0.383,-0.048
1356,-9.438,-2.294,0.709,0.257,0.399,-0.029
1357,-9.515,-2.322,0.69,0.258,0.419,-0.01
1358,-9.62,-2.346,0.651,0.258,0.448,0.017
1359,-9.711,-2.361,0.632,0.258,0.473,0.038
1360,-9.807,-2.37,0.599,0.259,0.498,0.059
1361,-9.931,-2.375,0.579,0.26,0.531,0.088
1362,-10.027,-2.38,0.551,0.26,0.555,0.111
1363,-10.123,-2.375,0.508,0.261,0.578,0.134
1364,-10.247,-2.356,0.45,0.261,0.608,0.163
1365,-10.348,-2.346,0.402,0.26,0.627,0.185
1366,-10.444,-2.327,0.354,0.258,0.641,0.208
1367,-10.568,-2.289,0.306,0.255,0.654,0.236
1368,-10.654,-2.246,0.244,0.252,0.658,0.258
1369,-10.726,-2.212,0.182,0.248,0.659,0.279
1370,-10.822,-2.15,0.12,0.243,0.655,0.305
1371,-10.889,-2.102,0.096,0.239,0.647,0.325
1372,-10.951,-2.049,0.072,0.235,0.631,0.343
1373,-11.009,-1.968,0.014,0.229,0.602,0.367
1374,-11.047,-1.911,0.0,0.225,0.573,0.383
1375,-11.076,-1.858,-0.062,0.221,0.541,0.397
1376,-11.09,-1.786,-0.115,0.215,0.496,0.413
1377,-11.085,-1.738,-0.134,0.211,0.456,0.422
1378,-11.08,-1.686,-0.148,0.209,0.412,0.428
1379,-11.056,-1.614,-0.168,0.204,0.347,0.43
1380,-11.013,-1.571,-0.187,0.199,0.296,0.428
1381,-10.956,-1.518,-0.196,0.192,0.225,0.42
1382,-10.908,-1.484,-0.201,0.186,0.171,0.41
1383,-10.855,-1.446,-0.206,0.179,0.119,0.399
1384,-10.76,-1.384,-0.206,0.166,0.051,0.379
1385,-10.683,-1.336,-0.215,0.155,0.004,0.362
1386,-10.597,-1.298,-0.225,0.142,-0.041,0.343
1387,-10.467,-1.25,-0.215,0.123,-0.095,0.315
1388,-10.367,-1.207,-0.211,0.107,-0.132,0.294
1389,-10.266,-1.178,-0.196,0.09,-0.165,0.272
1390,-10.108,-1.144,-0.172,0.068,-0.204,0.241
1391,-9.989,-1.106,-0.148,0.051,-0.23,0.218
1392,-9.826,-1.073,-0.11,0.027,-0.258,0.188
1393,-9.697,-1.053,-0.081,0.009,-0.275,0.167
1394,-9.088,-1.034,0.053,-0.081,-0.314,0.071
1395,-8.964,-1.044,0.091,-0.101,-0.315,0.052
1396,-8.839,-1.053,0.124,-0.122,-0.314,0.035
1397,-8.677,-1.063,0.163,-0.15,-0.311,0.013
1398,-8.562,-1.073,0.201,-0.171,-0.307,-0.002
1399,-8.442,-1.087,0.23,-0.191,-0.301,-0.016
1400,-8.289,-1.111,0.268,-0.216,-0.293,-0.032
1401,-8.169,-1.125,0.302,-0.235,-0.286,-0.042
1402,-8.035,-1.144,0.354,-0.257,-0.275,-0.053
1403,-7.93,-1.164,0.383,-0.272,-0.266,-0.059
1404,-7.829,-1.188,0.407,-0.287,-0.256,-0.063
1405,-7.69,-1.221,0.431,-0.303,-0.24,-0.066
1406,-7.58,-1.24,0.441,-0.313,-0.23,-0.066
1407,-7.441,-1.264,0.464,-0.323,-0.216,-0.063
1408,-7.326,-1.279,0.469,-0.328,-0.208,-0.058
1409,-7.207,-1.298,0.479,-0.33,-0.202,-0.052
1410,-7.02,-1.322,0.474,-0.329,-0.199,-0.041
1411,-6.871,-1.336,0.46,-0.325,-0.201,-0.031
1412,-6.718,-1.341,0.45,-0.319,-0.207,-0.02
1413,-6.512,-1.346,0.436,-0.306,-0.223,-0.004
1414,-6.349,-1.331,0.417,-0.294,-0.242,0.01
1415,-6.12,-1.312,0.407,-0.274,-0.277,0.029
1416,-5.947,-1.288,0.407,-0.255,-0.309,0.044
1417,-5.765,-1.259,0.407,-0.232,-0.347,0.059
1418,-5.497,-1.207,0.407,-0.198,-0.406,0.078
1419,-5.291,-1.168,0.407,-0.17,-0.456,0.094
1420,-5.071,-1.111,0.417,-0.137,-0.511,0.108
1421,-4.769,-1.034,0.431,-0.09,-0.591,0.126
1422,-4.515,-0.967,0.445,-0.051,-0.656,0.138
1423,-4.161,-0.881,0.464,0.004,-0.749,0.152
1424,-3.879,-0.819,0.474,0.047,-0.822,0.16
1425,-3.582,-0.757,0.484,0.092,-0.897,0.167
1426,-3.17,-0.666,0.517,0.154,-1.001,0.171
1427,-2.849,-0.603,0.536,0.2,-1.08,0.173
1428,-2.519,-0.541,0.56,0.247,-1.159,0.171
1429,-2.049,-0.455,0.57,0.307,-1.262,0.165
1430,-1.7,-0.393,0.57,0.35,-1.334,0.158
1431,-1.346,-0.326,0.565,0.391,-1.405,0.148
1432,-0.881,-0.23,0.555,0.442,-1.486,0.132
1433,-0.536,-0.158,0.551,0.477,-1.532,0.117
1434,-0.201,-0.096,0.555,0.507,-1.569,0.102
1435,0.244,0.005,0.551,0.543,-1.602,0.079
1436,0.565,0.081,0.541,0.566,-1.608,0.06
1437,0.967,0.187,0.527,0.589,-1.594,0.034
1438,1.25,0.263,0.512,0.599,-1.565,0.014
1439,1.508,0.33,0.488,0.605,-1.52,-0.007
1440,1.82,0.397,0.45,0.604,-1.431,-0.037
1441,2.021,0.441,0.412,0.594,-1.344,-0.059
1442,2.188,0.474,0.373,0.578,-1.241,-0.081
1443,2.365,0.512,0.326,0.545,-1.082,-0.112
1444,2.452,0.527,0.321,0.513,-0.949,-0.135
1445,2.5,0.541,0.33,0.474,-0.808,-0.156
1446,2.5,0.541,0.345,0.416,-0.613,-0.184
1447,2.456,0.527,0.354,0.367,-0.465,-0.204
1448,2.375,0.508,0.378,0.315,-0.319,-0.221
1449,2.198,0.469,0.417,0.242,-0.133,-0.242
1450,2.03,0.421,0.45,0.188,-0.002,-0.255
1451,1.834,0.378,0.498,0.133,0.119,-0.265
1452,1.532,0.302,0.565,0.062,0.264,-0.275
1453,1.293,0.239,0.594,0.012,0.359,-0.278
1454,1.044,0.163,0.618,-0.035,0.443,-0.278
1455,0.685,0.048,0.656,-0.093,0.538,-0.272
1456,0.421,-0.038,0.694,-0.133,0.597,-0.264
1457,0.148,-0.144,0.733,-0.168,0.646,-0.253
1458,-0.215,-0.283,0.761,-0.209,0.696,-0.233
1459,-1.35,-0.852,0.857,-0.289,0.759,-0.141
1460,-1.69,-1.044,0.881,-0.297,0.757,-0.107
1461,-1.944,-1.178,0.881,-0.298,0.754,-0.08
1462,-2.188,-1.302,0.876,-0.294,0.75,-0.053
1463,-2.519,-1.46,0.857,-0.284,0.747,-0.015
1464,-2.768,-1.571,0.833,-0.271,0.748,0.016
1465,-3.007,-1.681,0.79,-0.253,0.754,0.046
1466,-3.323,-1.81,0.699,-0.225,0.77,0.088
1467,-3.563,-1.891,0.637,-0.2,0.789,0.121
1468,-3.802,-1.963,0.575,-0.17,0.813,0.155
1469,-4.123,-2.045,0.474,-0.128,0.853,0.202
1470,-4.357,-2.083,0.393,-0.093,0.888,0.239
1471,-4.678,-2.107,0.292,-0.045,0.938,0.289
1472,-4.922,-2.112,0.211,-0.007,0.977,0.327
1473,-5.167,-2.102,0.139,0.031,1.015,0.366
1474,-5.497,-2.059,0.053,0.082,1.061,0.419
1475,-5.751,-2.011,-0.014,0.119,1.09,0.459
1476,-6.005,-1.963,-0.096,0.155,1.117,0.498
1477,-6.349,-1.867,-0.225,0.201,1.145,0.55
1478,-6.598,-1.781,-0.311,0.233,1.159,0.586
1479,-6.838,-1.695,-0.397,0.263,1.167,0.622
1480,-7.135,-1.566,-0.512,0.299,1.167,0.667
1481,-7.341,-1.46,-0.599,0.322,1.155,0.697
1482,-7.532,-1.346,-0.661,0.342,1.134,0.725
1483,-7.757,-1.202,-0.713,0.365,1.087,0.757
1484,-7.891,-1.087,-0.752,0.378,1.037,0.776
1485,-8.035,-0.929,-0.781,0.388,0.948,0.796
1486,-8.097,-0.824,-0.809,0.391,0.867,0.805
1487,-8.135,-0.718,-0.814,0.389,0.774,0.809
1488,-8.159,-0.579,-0.79,0.379,0.632,0.807
1489,-8.155,-0.484,-0.761,0.363,0.513,0.799
1490,-8.126,-0.402,-0.723,0.342,0.387,0.785
1491,-8.049,-0.306,-0.69,0.303,0.217,0.757
1492,-7.977,-0.254,-0.67,0.266,0.092,0.729
1493,-7.901,-0.201,-0.661,0.22,-0.024,0.697
1494,-7.796,-0.144,-0.651,0.149,-0.16,0.647
1495,-7.724,-0.096,-0.627,0.087,-0.243,0.605
1496,-7.633,-0.019,-0.584,-0.006,-0.326,0.546
1497,-7.585,0.043,-0.56,-0.083,-0.363,0.5
1498,-7.551,0.124,-0.536,-0.163,-0.375,0.455
1499,-7.532,0.239,-0.546,-0.271,-0.35,0.396
1500,-7.547,0.33,-0.555,-0.352,-0.299,0.355
1501,-7.561,0.417,-0.589,-0.428,-0.221,0.317
1502,-7.623,0.522,-0.632,-0.523,-0.079,0.269
1503,-7.685,0.589,-0.685,-0.588,0.052,0.236
1504,-7.81,0.666,-0.742,-0.663,0.246,0.196
1505,-7.925,0.718,-0.757,-0.711,0.399,0.168
1506,-8.073,0.771,-0.747,-0.753,0.55,0.141
1507,-8.322,0.833,-0.713,-0.798,0.735,0.107
1508,-8.552,0.876,-0.666,-0.826,0.853,0.083
1509,-8.801,0.905,-0.618,-0.848,0.952,0.057
1510,-9.189,0.843,-0.56,-0.873,1.049,0.022
1511,-9.534,0.656,-0.503,-0.884,1.094,-0.022
1512,-9.888,0.474,-0.445,-0.876,1.109,-0.092
1513,-10.333,0.354,-0.445,-0.838,1.09,-0.207
1514,-10.645,0.292,-0.464,-0.795,1.056,-0.295
1515,-10.956,0.22,-0.45,-0.741,1.005,-0.379
1516,-11.368,0.091,-0.407,-0.657,0.919,-0.479
1517,-11.665,-0.038,-0.393,-0.592,0.844,-0.541
1518,-13.082,-0.8,-0.622,-0.339,0.544,-0.687
1519,-13.412,-0.886,-0.642,-0.303,0.508,-0.683
1520,-13.872,-0.924,-0.651,-0.261,0.479,-0.653
1521,-14.222,-0.919,-0.675,-0.235,0.472,-0.612
1522,-14.581,-0.891,-0.67,-0.217,0.478,-0.554
1523,-15.069,-0.824,-0.637,-0.204,0.501,-0.453
1524,-15.438,-0.761,-0.618,-0.205,0.525,-0.362
1525,-15.907,-0.67,-0.632,-0.22,0.569,-0.224
1526,-16.257,-0.599,-0.675,-0.243,0.609,-0.112
1527,-16.616,-0.522,-0.68,-0.272,0.651,0.005
1528,-17.085,-0.397,-0.613,-0.318,0.7,0.164
1529,-17.43,-0.292,-0.536,-0.352,0.726,0.283
1530,-17.751,-0.163,-0.464,-0.383,0.738,0.398
1531,-18.091,0.024,-0.493,-0.414,0.734,0.543
1532,-18.249,0.177,-0.603,-0.426,0.721,0.642
1533,-18.335,0.397,-0.737,-0.423,0.685,0.755
1534,-18.316,0.555,-0.819,-0.407,0.638,0.824
1535,-18.215,0.723,-0.929,-0.38,0.568,0.879
1536,-17.942,0.939,-1.149,-0.33,0.443,0.925
1537,-17.645,1.087,-1.331,-0.286,0.327,0.939
1538,-17.305,1.226,-1.504,-0.242,0.193,0.935
1539,-16.798,1.398,-1.681,-0.192,-0.018,0.904
1540,-16.391,1.513,-1.81,-0.167,-0.197,0.86
1541,-15.974,1.638,-1.935,-0.161,-0.388,0.801
1542,-15.452,1.815,-2.073,-0.186,-0.652,0.701
1543,-15.098,1.978,-2.107,-0.231,-0.85,0.615
1544,-14.696,2.222,-2.093,-0.328,-1.101,0.492
1545,-14.432,2.399,-2.049,-0.428,-1.273,0.397
1546,-14.198,2.557,-2.016,-0.549,-1.419,0.303
1547,-13.92,2.71,-1.949,-0.741,-1.561,0.183
1548,-13.733,2.768,-1.911,-0.903,-1.619,0.098
1549,-13.561,2.782,-1.858,-1.08,-1.63,0.017
1550,-13.398,2.289,-1.03,-1.928,-1.137,-0.29
1551,-13.503,2.107,-0.752,-2.073,-0.949,-0.335
1552,-13.68,1.844,-0.474,-2.223,-0.676,-0.382
1553,-13.819,1.609,-0.383,-2.3,-0.456,-0.406
1554,-13.992,1.221,-0.407,-2.356,-0.154,-0.429
1555,-14.126,0.895,-0.469,-2.369,0.073,-0.442
1556,-14.265,0.56,-0.517,-2.36,0.29,-0.455
1557,-14.49,0.134,-0.546,-2.322,0.541,-0.474
1558,-14.667,-0.168,-0.512,-2.276,0.685,-0.488
1559,-14.849,-0.455,-0.474,-2.212,0.786,-0.504
1560,-14.997,-0.843,-0.776,-2.099,0.86,-0.526
1561,-15.055,-1.111,-1.149,-1.988,0.889,-0.542
1562,-14.892,-1.422,-2.423,-1.795,0.918,-0.556
1563,-14.427,-1.676,-4.453,-1.612,1.0,-0.558
1564,-13.733,-1.872,-7.187,-1.396,1.196,-0.552
1565,-12.79,-1.939,-10.98,-1.052,1.662,-0.522
1566,-12.354,-1.92,-13.178,-0.751,2.125,-0.483
1567,-12.632,-2.121,-14.394,-0.307,2.763,-0.419
1568,-13.752,-2.466,-13.719,0.03,3.139,-0.384
1569,-15.787,-2.816,-11.732,0.346,3.319,-0.374
1570,-20.02,-2.365,-7.977,0.734,3.152,-0.395
1571,-24.129,-0.91,-5.578,1.053,2.758,-0.381
1572,-29.295,0.943,-2.581,1.438,2.21,-0.305
1573,-37.005,2.854,0.771,2.033,1.261,-0.11
1574,-41.142,3.361,0.536,2.5,0.584,0.061
1575,-43.311,3.036,0.464,3.055,-0.161,0.219
1576,-42.43,2.342,0.67,3.366,-0.772,0.25
1577,-40.232,1.623,0.718,3.57,-1.459,0.206
1578,-36.785,1.111,1.781,3.69,-2.506,0.069
1579,-34.113,1.164,3.103,3.683,-3.402,-0.05
1580,-31.417,1.456,4.29,3.615,-4.331,-0.152
1581,-17.119,1.073,9.021,2.484,-4.366,-0.359
1582,-12.785,0.345,8.447,1.978,-4.366,-0.414
1583,-6.876,-0.996,7.393,1.096,-4.366,-0.499
1584,-3.122,-2.346,7.029,0.312,-4.366,-0.567
1585,-0.024,-3.917,6.905,-0.521,-4.366,-0.639
1586,3.184,-6.048,6.694,-1.608,-2.969,-0.742
1587,4.65,-7.456,6.574,-2.356,-1.975,-0.822
1588,5.296,-8.619,6.57,-3.022,-1.13,-0.9
1589,5.047,-9.73,6.79,-3.76,-0.25,-0.997
1590,4.137,-10.3,6.924,-4.198,0.248,-1.053
1591,2.236,-10.898,6.809,-4.366,0.78,-1.097
1592,0.464,-11.329,6.541,-4.366,1.139,-1.103
1593,-1.58,-11.736,6.249,-4.366,1.504,-1.091
1594,-4.712,-12.22,6.029,-4.366,2.016,-1.042
1595,-7.298,-12.56,6.0,-4.366,2.417,-0.982
1596,-10.017,-12.828,6.024,-4.366,2.83,-0.905
1597,-13.786,-12.948,6.177,-4.366,3.375,-0.772
1598,-16.625,-12.943,6.244,-4.366,3.749,-0.648
1599,-19.316,-12.79,6.144,-3.993,4.078,-0.503
1600,-22.525,-12.349,5.832,-3.278,4.366,-0.274
1601,-24.718,-11.899,5.741,-2.641,4.366,-0.077
1602,-27.691,-11.157,6.354,-1.701,4.366,0.207
1603,-29.947,-10.357,7.029,-0.956,4.258,0.435
1604,-32.097,-9.376,7.508,-0.186,3.815,0.677
1605,-34.706,-7.958,8.126,0.867,2.985,1.025
1606,-36.172,-7.01,8.327,1.66,2.218,1.297
1607,-37.038,-6.254,8.222,2.438,1.38,1.559
1608,-37.168,-5.449,7.848,3.411,0.219,1.867
1609,-36.478,-4.894,7.293,4.068,-0.643,2.054
1610,-35.142,-4.243,6.517,4.366,-1.451,2.201
1611,-32.451,-3.16,4.731,4.366,-2.355,2.342
1612,-29.99,-2.184,3.179,4.366,-2.831,2.413
1613,-27.361,-1.144,1.671,4.366,-3.123,2.463
1614,-23.736,0.153,-0.479,4.366,-3.234,2.496
1615,-20.973,0.962,-2.303,4.366,-3.112,2.495
1616,-17.353,1.657,-4.899,4.366,-2.698,2.445
1617,-14.772,1.896,-6.766,4.366,-2.24,2.361
1618,-12.402,2.021,-8.404,4.366,-1.698,2.232
1619,-5.823,2.461,-11.717,4.366,0.462,1.195
1620,-5.564,2.672,-11.564,4.366,0.643,0.924
1621,-5.813,3.132,-11.128,4.366,0.696,0.572
1622,-6.349,3.591,-10.745,4.149,0.618,0.328
1623,-7.101,4.123,-10.343,3.696,0.468,0.109
1624,-8.289,4.908,-9.821,3.068,0.199,-0.134
1625,-9.189,5.483,-9.467,2.581,-0.023,-0.274
1626,-10.027,5.986,-9.103,2.083,-0.242,-0.375
1627,-10.961,6.493,-8.576,1.413,-0.51,-0.455
1628,-11.473,6.728,-8.126,0.911,-0.687,-0.478
1629,-11.813,6.814,-7.647,0.417,-0.848,-0.474
1630,-11.981,6.728,-6.91,-0.216,-1.044,-0.44
1631,-11.918,6.531,-6.292,-0.665,-1.179,-0.4
1632,-11.636,6.115,-5.411,-1.218,-1.35,-0.337
1633,-11.315,5.713,-4.75,-1.591,-1.474,-0.292
1634,-10.908,5.262,-4.137,-1.926,-1.588,-0.253
1635,-10.257,4.597,-3.438,-2.316,-1.713,-0.217
1636,-9.706,4.051,-3.036,-2.568,-1.775,-0.205
1637,-8.902,3.256,-2.653,-2.853,-1.804,-0.217
1638,-8.284,2.653,-2.437,-3.031,-1.785,-0.246
1639,-7.666,2.059,-2.294,-3.18,-1.723,-0.295
1640,-6.876,1.269,-2.145,-3.339,-1.584,-0.385
1641,-6.383,0.675,-2.04,-3.416,-1.457,-0.478
1642,-5.842,0.211,-2.112,-3.495,-1.291,-0.581
1643,-5.267,-0.345,-2.093,-3.588,-1.029,-0.731
1644,-4.922,-0.68,-1.935,-3.61,-0.828,-0.837
1645,-4.664,-1.125,-1.571,-3.557,-0.579,-0.952
1646,-4.587,-1.518,-1.259,-3.46,-0.423,-1.026
1647,-4.602,-1.92,-0.967,-3.324,-0.297,-1.094
1648,-4.697,-2.442,-0.68,-3.106,-0.172,-1.174
1649,-4.855,-2.82,-0.474,-2.93,-0.102,-1.227
1650,-5.143,-3.251,-0.187,-2.675,-0.044,-1.286
1651,-5.411,-3.505,0.0,-2.474,-0.023,-1.318
1652,-6.732,-3.543,0.565,-1.598,-0.023,-1.226
1653,-6.977,-3.4,0.651,-1.426,-0.023,-1.132
1654,-7.192,-3.237,0.737,-1.26,-0.017,-1.015
1655,-7.422,-3.026,0.828,-1.053,0.001,-0.822
1656,-7.561,-2.883,0.862,-0.911,0.021,-0.657
1657,-7.681,-2.734,0.9,-0.741,0.061,-0.419
1658,-7.728,-2.643,0.919,-0.628,0.098,-0.236
1659,-7.752,-2.581,0.939,-0.528,0.142,-0.054
1660,-7.738,-2.5,0.962,-0.41,0.208,0.177
1661,-7.705,-2.447,0.991,-0.331,0.262,0.335
1662,-7.661,-2.394,1.006,-0.26,0.318,0.478
1663,-7.609,-2.318,1.03,-0.171,0.394,0.639
1664,-7.57,-2.26,1.044,-0.107,0.452,0.735
1665,-7.537,-2.198,1.034,-0.046,0.51,0.809
1666,-7.518,-2.112,1.015,0.032,0.587,0.873
1667,-7.527,-2.04,0.991,0.088,0.646,0.894
1668,-7.566,-1.939,0.962,0.161,0.725,0.888
1669,-7.618,-1.848,0.934,0.213,0.783,0.86
1670,-7.705,-1.748,0.905,0.261,0.837,0.815
1671,-7.858,-1.599,0.881,0.321,0.903,0.73
1672,-7.987,-1.47,0.862,0.361,0.946,0.652
1673,-8.14,-1.326,0.848,0.397,0.98,0.567
1674,-8.351,-1.097,0.781,0.432,1.014,0.448
1675,-8.533,-0.915,0.728,0.443,1.033,0.358
1676,-8.71,-0.737,0.675,0.442,1.046,0.271
1677,-8.945,-0.498,0.618,0.423,1.051,0.163
1678,-9.117,-0.321,0.575,0.396,1.043,0.091
1679,-9.285,-0.148,0.541,0.357,1.027,0.027
1680,-9.476,0.067,0.508,0.292,0.992,-0.043
1681,-9.596,0.201,0.493,0.235,0.954,-0.084
1682,-9.706,0.311,0.503,0.175,0.908,-0.116
1683,-9.826,0.417,0.522,0.092,0.831,-0.147
1684,-9.898,0.464,0.532,0.029,0.763,-0.162
1685,-9.936,0.488,0.551,-0.03,0.689,-0.175
1686,-9.95,0.484,0.579,-0.106,0.585,-0.187
1687,-9.936,0.46,0.608,-0.159,0.504,-0.195
1688,-9.893,0.426,0.637,-0.207,0.424,-0.204
1689,-9.802,0.369,0.666,-0.264,0.32,-0.218
1690,-9.706,0.321,0.69,-0.301,0.247,-0.229
1691,-9.601,0.268,0.713,-0.334,0.18,-0.242
1692,-9.438,0.196,0.709,-0.372,0.104,-0.26
1693,-9.309,0.139,0.704,-0.397,0.059,-0.274
1694,-9.179,0.072,0.699,-0.419,0.024,-0.288
1695,-8.997,-0.014,0.67,-0.447,-0.005,-0.307
1696,-8.863,-0.086,0.651,-0.467,-0.012,-0.321
1697,-8.696,-0.187,0.637,-0.493,-0.004,-0.339
1698,-8.586,-0.254,0.627,-0.511,0.013,-0.351
1699,-8.499,-0.335,0.622,-0.529,0.04,-0.362
1700,-8.418,-0.441,0.632,-0.55,0.088,-0.375
1701,-8.384,-0.493,0.642,-0.561,0.131,-0.38
1702,-8.375,-0.541,0.646,-0.571,0.178,-0.383
1703,-8.389,-0.599,0.622,-0.589,0.248,-0.378
1704,-8.413,-0.618,0.594,-0.609,0.307,-0.368
1705,-8.471,-0.632,0.532,-0.643,0.394,-0.35
1706,-8.523,-0.632,0.493,-0.671,0.463,-0.33
1707,-8.595,-0.637,0.469,-0.697,0.531,-0.304
1708,-8.705,-0.67,0.469,-0.723,0.615,-0.263
1709,-8.792,-0.709,0.498,-0.734,0.67,-0.231
1710,-8.882,-0.771,0.536,-0.736,0.713,-0.198
1711,-9.012,-0.876,0.599,-0.725,0.75,-0.159
1712,-9.112,-0.962,0.642,-0.705,0.762,-0.135
1713,-9.227,-1.073,0.67,-0.669,0.754,-0.109
1714,-9.309,-1.14,0.694,-0.636,0.733,-0.095
1715,-9.376,-1.197,0.694,-0.599,0.702,-0.085
1716,-9.448,-1.235,0.67,-0.549,0.647,-0.076
1717,-9.495,-1.159,0.536,-0.407,0.422,-0.035
1718,-9.476,-1.106,0.488,-0.372,0.357,-0.012
1719,-9.457,-1.068,0.45,-0.348,0.314,0.008
1720,-9.428,-1.034,0.426,-0.327,0.277,0.032
1721,-9.385,-0.996,0.383,-0.301,0.238,0.064
1722,-9.347,-0.982,0.369,-0.282,0.22,0.087
1723,-9.294,-0.967,0.34,-0.258,0.208,0.116
1724,-9.256,-0.962,0.316,-0.241,0.209,0.136
1725,-9.232,-0.958,0.297,-0.222,0.218,0.152
1726,-9.203,-0.948,0.278,-0.199,0.242,0.168
1727,-9.184,-0.934,0.268,-0.179,0.266,0.176
1728,-9.184,-0.915,0.249,-0.159,0.295,0.181
1729,-9.194,-0.891,0.249,-0.131,0.34,0.182
1730,-9.213,-0.857,0.259,-0.11,0.375,0.18
1731,-9.242,-0.819,0.254,-0.087,0.411,0.175
1732,-9.29,-0.771,0.263,-0.058,0.456,0.165
1733,-9.328,-0.728,0.268,-0.037,0.487,0.157
1734,-9.371,-0.685,0.254,-0.016,0.515,0.147
1735,-9.443,-0.632,0.244,0.008,0.546,0.131
1736,-9.495,-0.594,0.249,0.023,0.563,0.119
1737,-9.548,-0.551,0.249,0.036,0.573,0.108
1738,-9.601,-0.488,0.244,0.05,0.576,0.093
1739,-9.634,-0.445,0.23,0.058,0.57,0.082
1740,-9.677,-0.378,0.215,0.064,0.551,0.07
1741,-9.701,-0.321,0.215,0.065,0.527,0.062
1742,-9.706,-0.283,0.215,0.064,0.497,0.055
1743,-9.692,-0.22,0.215,0.059,0.446,0.048
1744,-9.677,-0.177,0.206,0.053,0.402,0.045
1745,-9.634,-0.144,0.192,0.046,0.354,0.042
1746,-9.553,-0.101,0.148,0.036,0.288,0.038
1747,-9.481,-0.077,0.129,0.027,0.236,0.036
1748,-9.38,-0.057,0.11,0.017,0.184,0.034
1749,-9.246,-0.034,0.072,0.005,0.118,0.03
1750,-9.136,-0.014,0.043,-0.005,0.071,0.027
1751,-9.021,0.0,0.024,-0.014,0.028,0.023
1752,-8.868,0.019,-0.01,-0.024,-0.023,0.017
1753,-8.753,0.029,-0.038,-0.031,-0.054,0.011
1754,-8.653,0.048,-0.057,-0.037,-0.081,0.005
1755,-8.514,0.057,-0.081,-0.043,-0.105,-0.005
1756,-8.413,0.072,-0.101,-0.047,-0.116,-0.014
1757,-8.294,0.077,-0.12,-0.051,-0.12,-0.026
1758,-8.217,0.086,-0.134,-0.053,-0.114,-0.037
1759,-8.145,0.091,-0.148,-0.056,-0.102,-0.048
1760,-8.059,0.101,-0.163,-0.06,-0.077,-0.063
1761,-8.016,0.11,-0.158,-0.064,-0.052,-0.074
1762,-7.982,0.115,-0.158,-0.069,-0.024,-0.085
1763,-7.963,0.115,-0.163,-0.078,0.018,-0.098
1764,-7.954,0.129,-0.172,-0.086,0.051,-0.106
1765,-7.963,0.134,-0.172,-0.1,0.095,-0.117
1766,-7.973,0.139,-0.177,-0.112,0.126,-0.124
1767,-7.997,0.134,-0.177,-0.127,0.155,-0.128
1768,-8.045,0.129,-0.153,-0.149,0.187,-0.133
1769,-8.083,0.124,-0.148,-0.168,0.207,-0.135
1770,-8.121,0.124,-0.129,-0.19,0.221,-0.135
1771,-8.188,0.129,-0.11,-0.221,0.233,-0.134
1772,-8.231,0.12,-0.091,-0.246,0.236,-0.133
1773,-8.284,0.096,-0.067,-0.281,0.233,-0.129
1774,-8.317,0.086,-0.062,-0.309,0.224,-0.126
1775,-8.346,0.067,-0.043,-0.337,0.211,-0.122
1776,-8.37,0.043,0.0,-0.375,0.188,-0.117
1777,-8.38,0.024,0.019,-0.404,0.166,-0.113
1778,-8.37,-0.005,0.043,-0.431,0.143,-0.11
1779,-8.356,-0.038,0.067,-0.465,0.109,-0.105
1780,-8.092,-0.158,0.091,-0.547,-0.002,-0.093
1781,-7.977,-0.196,0.101,-0.561,-0.03,-0.091
1782,-7.896,-0.23,0.105,-0.568,-0.049,-0.091
1783,-7.772,-0.273,0.129,-0.573,-0.071,-0.093
1784,-7.685,-0.311,0.129,-0.574,-0.084,-0.095
1785,-7.604,-0.345,0.144,-0.571,-0.093,-0.097
1786,-7.508,-0.378,0.168,-0.564,-0.098,-0.102
1787,-7.441,-0.402,0.172,-0.556,-0.097,-0.105
1788,-7.384,-0.426,0.182,-0.546,-0.091,-0.109
1789,-7.307,-0.46,0.192,-0.529,-0.076,-0.116
1790,-7.269,-0.488,0.201,-0.516,-0.06,-0.12
1791,-7.221,-0.532,0.196,-0.495,-0.031,-0.126
1792,-7.202,-0.555,0.192,-0.478,-0.004,-0.131
1793,-7.183,-0.575,0.201,-0.46,0.026,-0.136
1794,-7.183,-0.608,0.211,-0.435,0.069,-0.141
1795,-7.183,-0.622,0.211,-0.415,0.103,-0.144
1796,-7.197,-0.651,0.225,-0.387,0.149,-0.146
1797,-7.211,-0.666,0.23,-0.366,0.183,-0.147
1798,-7.235,-0.685,0.239,-0.344,0.215,-0.146
1799,-7.274,-0.699,0.268,-0.313,0.254,-0.143
1800,-7.302,-0.709,0.259,-0.29,0.279,-0.139
1801,-7.326,-0.709,0.263,-0.266,0.299,-0.134
1802,-7.345,-0.704,0.287,-0.232,0.318,-0.125
1803,-7.355,-0.704,0.292,-0.206,0.324,-0.117
1804,-7.35,-0.699,0.297,-0.17,0.322,-0.104
1805,-7.326,-0.694,0.297,-0.142,0.312,-0.094
1806,-7.293,-0.694,0.287,-0.113,0.297,-0.084
1807,-7.226,-0.69,0.268,-0.074,0.266,-0.069
1808,-7.159,-0.68,0.259,-0.043,0.235,-0.059
1809,-7.077,-0.68,0.249,-0.011,0.198,-0.05
1810,-6.958,-0.675,0.23,0.033,0.142,-0.039
1811,-6.852,-0.675,0.225,0.067,0.095,-0.032
1812,-6.699,-0.666,0.22,0.114,0.028,-0.026
1813,-6.574,-0.661,0.23,0.152,-0.023,-0.024
1814,-6.445,-0.656,0.239,0.188,-0.074,-0.024
1815,-6.273,-0.661,0.239,0.239,-0.141,-0.027
1816,-6.139,-0.67,0.239,0.278,-0.187,-0.032
1817,-6.005,-0.666,0.235,0.316,-0.229,-0.038
1818,-5.823,-0.68,0.235,0.367,-0.275,-0.05
1819,-5.689,-0.685,0.23,0.405,-0.302,-0.062
1820,-5.516,-0.699,0.23,0.455,-0.324,-0.08
1821,-5.406,-0.713,0.22,0.491,-0.331,-0.095
1822,-5.31,-0.723,0.211,0.527,-0.328,-0.111
1823,-5.114,-0.79,0.134,0.664,-0.168,-0.188
1824,-5.152,-0.8,0.101,0.684,-0.1,-0.202
1825,-5.248,-0.804,0.043,0.705,0.005,-0.218
1826,-5.358,-0.8,0.01,0.717,0.095,-0.228
1827,-5.483,-0.795,-0.019,0.723,0.193,-0.235
1828,-5.693,-0.79,-0.053,0.723,0.328,-0.239
1829,-5.875,-0.79,-0.062,0.718,0.43,-0.239
1830,-6.072,-0.795,-0.081,0.708,0.531,-0.236
1831,-6.349,-0.804,-0.105,0.687,0.656,-0.226
1832,-6.57,-0.809,-0.124,0.667,0.74,-0.216
1833,-6.867,-0.828,-0.163,0.635,0.836,-0.197
1834,-7.087,-0.848,-0.192,0.606,0.893,-0.18
1835,-7.317,-0.876,-0.206,0.576,0.936,-0.161
1836,-7.623,-0.905,-0.254,0.533,0.97,-0.133
1837,-7.839,-0.934,-0.287,0.499,0.981,-0.11
1838,-8.045,-0.967,-0.311,0.463,0.976,-0.086
1839,-8.294,-1.015,-0.383,0.416,0.952,-0.052
1840,-8.475,-1.053,-0.402,0.381,0.921,-0.027
1841,-8.686,-1.101,-0.441,0.335,0.865,0.006
1842,-8.835,-1.144,-0.45,0.304,0.814,0.031
1843,-8.969,-1.188,-0.436,0.274,0.757,0.054
1844,-9.093,-1.235,-0.484,0.239,0.674,0.082
1845,-9.17,-1.274,-0.517,0.217,0.611,0.102
1846,-9.237,-1.317,-0.527,0.198,0.55,0.118
1847,-9.299,-1.369,-0.546,0.178,0.466,0.137
1848,-9.333,-1.403,-0.565,0.165,0.404,0.149
1849,-9.347,-1.437,-0.579,0.157,0.346,0.157
1850,-9.352,-1.48,-0.613,0.148,0.274,0.165
1851,-9.352,-1.508,-0.637,0.143,0.225,0.169
1852,-9.342,-1.537,-0.675,0.14,0.169,0.17
1853,-9.342,-1.547,-0.694,0.139,0.135,0.167
1854,-9.333,-1.556,-0.728,0.137,0.109,0.164
1855,-9.323,-1.551,-0.776,0.137,0.086,0.157
1856,-9.318,-1.551,-0.814,0.136,0.078,0.15
1857,-9.313,-1.537,-0.848,0.135,0.076,0.142
1858,-9.318,-1.528,-0.886,0.132,0.084,0.13
1859,-9.328,-1.518,-0.905,0.13,0.097,0.12
1860,-9.347,-1.499,-0.934,0.126,0.114,0.109
1861,-9.376,-1.465,-0.972,0.12,0.141,0.094
1862,-9.409,-1.446,-0.991,0.116,0.164,0.084
1863,-9.438,-1.422,-1.015,0.111,0.187,0.074
1864,-9.476,-1.398,-1.044,0.102,0.215,0.06
1865,-9.515,-1.374,-1.063,0.096,0.233,0.052
1866,-9.567,-1.336,-1.087,0.087,0.252,0.04
1867,-9.606,-1.312,-1.101,0.08,0.26,0.033
1868,-9.644,-1.293,-1.111,0.074,0.262,0.026
1869,-9.687,-1.279,-1.125,0.065,0.255,0.019
1870,-9.72,-1.259,-1.125,0.059,0.242,0.013
1871,-9.744,-1.245,-1.135,0.052,0.222,0.008
1872,-9.768,-1.231,-1.164,0.044,0.188,0.003
1873,-9.783,-1.226,-1.164,0.039,0.155,-0.001
1874,-9.783,-1.226,-1.154,0.033,0.117,-0.005
1875,-9.773,-1.24,-1.149,0.027,0.06,-0.01
1876,-9.759,-1.255,-1.154,0.025,0.014,-0.015
1877,-9.725,-1.274,-1.154,0.022,-0.049,-0.021
1878,-9.692,-1.288,-1.14,0.021,-0.098,-0.025
1879,-9.658,-1.302,-1.125,0.022,-0.145,-0.031
1880,-9.606,-1.322,-1.106,0.025,-0.207,-0.039
1881,-9.562,-1.346,-1.077,0.028,-0.25,-0.045
1882,-9.304,-1.427,-0.967,0.054,-0.398,-0.078
1883,-9.246,-1.446,-0.958,0.06,-0.416,-0.084
1884,-9.199,-1.47,-0.948,0.067,-0.427,-0.092
1885,-9.122,-1.499,-0.919,0.075,-0.434,-0.101
1886,-9.079,-1.518,-0.91,0.08,-0.432,-0.108
1887,-9.026,-1.532,-0.905,0.085,-0.42,-0.117
1888,-8.993,-1.547,-0.895,0.089,-0.404,-0.124
1889,-8.959,-1.566,-0.881,0.089,-0.384,-0.128
1890,-8.945,-1.58,-0.876,0.089,-0.349,-0.134
1891,-8.945,-1.599,-0.871,0.088,-0.317,-0.139
1892,-8.954,-1.614,-0.862,0.083,-0.272,-0.142
1893,-8.973,-1.628,-0.862,0.079,-0.236,-0.143
1894,-9.002,-1.638,-0.867,0.074,-0.199,-0.143
1895,-9.041,-1.652,-0.862,0.066,-0.15,-0.14
1896,-9.074,-1.662,-0.862,0.059,-0.116,-0.137
1897,-9.127,-1.681,-0.867,0.05,-0.074,-0.131
1898,-9.165,-1.681,-0.867,0.043,-0.045,-0.126
1899,-9.213,-1.686,-0.852,0.036,-0.022,-0.119
1900,-9.275,-1.695,-0.857,0.027,0.0,-0.109
1901,-9.313,-1.709,-0.852,0.022,0.011,-0.1
1902,-9.352,-1.719,-0.838,0.016,0.016,-0.091
1903,-9.39,-1.733,-0.828,0.011,0.013,-0.078
1904,-9.424,-1.743,-0.819,0.008,0.003,-0.069
1905,-9.443,-1.757,-0.795,0.005,-0.018,-0.056
1906,-9.462,-1.762,-0.785,0.003,-0.04,-0.046
1907,-9.467,-1.772,-0.771,0.003,-0.066,-0.037
1908,-9.452,-1.791,-0.747,0.004,-0.106,-0.026
1909,-9.438,-1.8,-0.737,0.005,-0.139,-0.018
1910,-9.39,-1.815,-0.733,0.008,-0.183,-0.007
1911,-9.347,-1.824,-0.733,0.01,-0.217,-0.001
1912,-9.299,-1.829,-0.723,0.014,-0.25,0.005
1913,-9.227,-1.839,-0.733,0.019,-0.289,0.012
1914,-9.165,-1.844,-0.737,0.023,-0.314,0.016
1915,-9.103,-1.844,-0.742,0.028,-0.334,0.021
1916,-8.997,-1.844,-0.766,0.035,-0.353,0.026
1917,-8.93,-1.839,-0.781,0.04,-0.362,0.029
1918,-8.839,-1.82,-0.79,0.049,-0.365,0.034
1919,-8.772,-1.8,-0.795,0.055,-0.362,0.037
1920,-8.514,-1.714,-0.871,0.084,-0.293,0.051
1921,-8.471,-1.69,-0.886,0.09,-0.27,0.053
1922,-8.437,-1.666,-0.9,0.095,-0.246,0.054
1923,-8.394,-1.628,-0.915,0.099,-0.211,0.056
1924,-8.37,-1.599,-0.915,0.101,-0.186,0.057
1925,-8.356,-1.561,-0.934,0.103,-0.162,0.058
1926,-8.341,-1.518,-0.967,0.102,-0.131,0.059
1927,-8.332,-1.484,-0.977,0.099,-0.11,0.06
1928,-8.317,-1.441,-1.001,0.093,-0.086,0.06
1929,-8.322,-1.417,-1.02,0.087,-0.07,0.059
1930,-8.332,-1.384,-1.034,0.079,-0.058,0.059
1931,-8.332,-1.341,-1.063,0.066,-0.047,0.059
1932,-8.341,-1.312,-1.082,0.055,-0.043,0.059
1933,-8.361,-1.283,-1.077,0.042,-0.042,0.058
1934,-8.375,-1.255,-1.077,0.023,-0.046,0.058
1935,-8.37,-1.231,-1.077,0.008,-0.053,0.058
1936,-8.37,-1.197,-1.073,-0.008,-0.063,0.058
1937,-8.365,-1.159,-1.058,-0.03,-0.082,0.057
1938,-8.346,-1.135,-1.044,-0.047,-0.098,0.056
1939,-8.313,-1.116,-1.025,-0.068,-0.124,0.055
1940,-8.284,-1.097,-1.01,-0.085,-0.146,0.053
1941,-8.246,-1.068,-0.996,-0.102,-0.17,0.051
1942,-8.183,-1.049,-0.977,-0.123,-0.205,0.048
1943,-8.126,-1.03,-0.962,-0.138,-0.232,0.045
1944,-8.025,-1.006,-0.939,-0.159,-0.27,0.04
1945,-7.949,-0.991,-0.915,-0.174,-0.3,0.036
1946,-7.858,-0.967,-0.881,-0.188,-0.33,0.032
1947,-7.714,-0.948,-0.857,-0.207,-0.371,0.025
1948,-7.594,-0.929,-0.833,-0.22,-0.402,0.021
1949,-7.422,-0.895,-0.804,-0.238,-0.442,0.013
1950,-7.288,-0.876,-0.79,-0.25,-0.472,0.006
1951,-7.144,-0.843,-0.776,-0.262,-0.501,-0.0
1952,-6.948,-0.809,-0.752,-0.277,-0.538,-0.01
1953,-6.79,-0.79,-0.742,-0.287,-0.566,-0.018
1954,-6.565,-0.757,-0.723,-0.299,-0.6,-0.028
1955,-6.393,-0.728,-0.694,-0.308,-0.626,-0.035
1956,-6.22,-0.699,-0.661,-0.315,-0.652,-0.043
1957,-5.368,-0.551,-0.445,-0.344,-0.775,-0.079
1958,-5.191,-0.522,-0.393,-0.35,-0.801,-0.087
1959,-4.942,-0.484,-0.326,-0.359,-0.834,-0.097
1960,-4.755,-0.45,-0.287,-0.366,-0.858,-0.105
1961,-4.496,-0.412,-0.244,-0.378,-0.888,-0.116
1962,-4.3,-0.388,-0.206,-0.387,-0.908,-0.123
1963,-4.099,-0.354,-0.168,-0.395,-0.927,-0.129
1964,-3.816,-0.316,-0.129,-0.406,-0.948,-0.137
1965,-3.596,-0.292,-0.101,-0.413,-0.962,-0.142
1966,-3.309,-0.273,-0.053,-0.419,-0.979,-0.148
1967,-3.093,-0.244,-0.019,-0.421,-0.991,-0.152
1968,-2.873,-0.22,0.01,-0.422,-1.002,-0.155
1969,-2.576,-0.177,0.062,-0.419,-1.017,-0.157
1970,-2.361,-0.144,0.11,-0.413,-1.028,-0.158
1971,-2.059,-0.105,0.158,-0.402,-1.043,-0.159
1972,-1.834,-0.067,0.192,-0.392,-1.055,-0.159
1973,-1.599,-0.034,0.22,-0.379,-1.069,-0.158
1974,-1.288,0.01,0.249,-0.359,-1.089,-0.156
1975,-1.053,0.053,0.278,-0.343,-1.106,-0.154
1976,-0.728,0.105,0.33,-0.32,-1.131,-0.149
1977,-0.488,0.153,0.373,-0.302,-1.152,-0.145
1978,-0.249,0.206,0.393,-0.285,-1.174,-0.142
1979,0.067,0.273,0.426,-0.262,-1.203,-0.137
1980,0.302,0.321,0.46,-0.247,-1.225,-0.132
1981,0.527,0.383,0.484,-0.233,-1.247,-0.128
1982,0.819,0.45,0.517,-0.217,-1.273,-0.124
1983,1.025,0.498,0.541,-0.208,-1.287,-0.122
1984,1.231,0.527,0.565,-0.2,-1.296,-0.121
1985,1.489,0.551,0.579,-0.194,-1.294,-0.123
1986,1.662,0.555,0.579,-0.192,-1.279,-0.128
1987,1.853,0.551,0.579,-0.194,-1.239,-0.136
1988,1.963,0.541,0.584,-0.198,-1.191,-0.145
1989,2.054,0.517,0.599,-0.205,-1.127,-0.157
1990,2.116,0.469,0.599,-0.215,-1.015,-0.176
1991,2.121,0.426,0.608,-0.222,-0.911,-0.192
1992,2.093,0.383,0.613,-0.229,-0.791,-0.209
1993,1.992,0.316,0.622,-0.237,-0.61,-0.231
1994,1.872,0.263,0.632,-0.239,-0.46,-0.248
1995,1.714,0.192,0.651,-0.24,-0.304,-0.264
1996,1.451,0.081,0.67,-0.239,-0.089,-0.283
1997,1.216,-0.005,0.69,-0.235,0.071,-0.295
1998,0.958,-0.101,0.713,-0.231,0.228,-0.306
1999,0.56,-0.235,0.742,-0.225,0.426,-0.316
2000,0.239,-0.345,0.747,-0.221,0.564,-0.32
2001,-0.215,-0.493,0.761,-0.216,0.732,-0.322
2002,-1.949,-0.958,0.838,-0.207,1.137,-0.28
2003,-2.38,-1.053,0.876,-0.205,1.193,-0.259
2004,-2.94,-1.178,0.929,-0.202,1.246,-0.224
2005,-3.357,-1.264,0.962,-0.198,1.27,-0.194
2006,-3.898,-1.365,0.996,-0.192,1.278,-0.149
2007,-4.286,-1.441,1.02,-0.186,1.269,-0.11
2008,-4.654,-1.518,1.053,-0.178,1.248,-0.07
2009,-5.104,-1.623,1.087,-0.164,1.198,-0.013
2010,-5.411,-1.695,1.125,-0.152,1.146,0.032
2011,-5.679,-1.767,1.144,-0.136,1.082,0.076
2012,-5.986,-1.867,1.149,-0.112,0.98,0.137
2013,-6.167,-1.935,1.149,-0.091,0.893,0.182
2014,-6.359,-2.006,1.14,-0.06,0.766,0.24
2015,-6.455,-2.059,1.125,-0.034,0.665,0.282
2016,-6.531,-2.112,1.116,-0.006,0.561,0.321
2017,-6.579,-2.174,1.087,0.033,0.422,0.371
2018,-6.584,-2.212,1.082,0.064,0.318,0.404
2019,-6.57,-2.231,1.058,0.097,0.219,0.433
2020,-6.517,-2.251,1.049,0.14,0.095,0.468
2021,-6.479,-2.246,1.039,0.174,0.01,0.489
2022,-6.436,-2.227,1.049,0.209,-0.065,0.506
2023,-6.383,-2.179,1.049,0.254,-0.148,0.522
2024,-6.354,-2.131,1.063,0.286,-0.195,0.531
2025,-6.34,-2.069,1.073,0.317,-0.229,0.536
2026,-6.345,-1.978,1.039,0.352,-0.246,0.538
2027,-6.359,-1.901,0.977,0.373,-0.237,0.538
2028,-6.383,-1.81,0.886,0.39,-0.206,0.535
2029,-6.455,-1.671,0.733,0.401,-0.131,0.53
2030,-6.527,-1.551,0.608,0.403,-0.049,0.526
2031,-6.618,-1.427,0.469,0.397,0.051,0.523
2032,-6.785,-1.245,0.292,0.38,0.21,0.518
2033,-6.943,-1.101,0.148,0.362,0.343,0.516
2034,-7.178,-0.895,0.0,0.331,0.527,0.515
2035,-7.379,-0.737,-0.086,0.305,0.664,0.515
2036,-7.59,-0.579,-0.168,0.279,0.793,0.515
2037,-7.867,-0.373,-0.268,0.245,0.946,0.516
2038,-8.078,-0.235,-0.33,0.22,1.04,0.517
2039,-8.27,-0.11,-0.378,0.2,1.112,0.515
2040,-8.49,0.029,-0.469,0.175,1.17,0.509
2041,-8.633,0.105,-0.541,0.158,1.183,0.501
2042,-8.758,0.168,-0.603,0.142,1.168,0.489
2043,-8.882,0.23,-0.632,0.121,1.106,0.465
2044,-8.959,0.259,-0.661,0.104,1.026,0.441
2045,-9.007,0.287,-0.704,0.084,0.92,0.412
2046,-9.045,0.33,-0.766,0.051,0.749,0.366
2047,-9.064,0.378,-0.79,0.019,0.603,0.328
2048,-9.088,0.445,-0.804,-0.022,0.445,0.29
2049,-9.112,0.56,-0.795,-0.092,0.225,0.236
2050,-9.155,0.67,-0.752,-0.159,0.058,0.198
2051,-9.203,0.795,-0.69,-0.24,-0.106,0.162
2052,-9.299,0.967,-0.536,-0.368,-0.307,0.118
2053,-9.39,1.106,-0.407,-0.479,-0.44,0.087
2054,-9.524,1.279,-0.201,-0.643,-0.583,0.053
2055,-9.663,1.312,-0.043,-0.773,-0.657,0.027
2056,-9.855,1.255,0.163,-0.896,-0.702,-0.013
2057,-10.104,1.231,0.412,-1.032,-0.721,-0.091
2058,-10.266,1.255,0.57,-1.111,-0.698,-0.153
2059,-10.439,1.274,0.728,-1.169,-0.641,-0.213
2060,-10.659,1.231,0.943,-1.218,-0.517,-0.283
2061,-10.831,1.159,1.12,-1.231,-0.394,-0.329
2062,-11.066,1.02,1.331,-1.219,-0.2,-0.381
2063,-11.253,0.915,1.489,-1.19,-0.039,-0.414
2064,-11.43,0.828,1.638,-1.144,0.127,-0.438
2065,-11.641,0.761,1.757,-1.059,0.345,-0.456
2066,-11.756,0.776,1.786,-0.975,0.501,-0.456
2067,-11.856,1.475,1.336,-0.435,0.997,-0.244
2068,-11.851,1.743,1.226,-0.309,1.019,-0.15
2069,-11.866,2.011,1.12,-0.19,1.005,-0.042
2070,-11.914,2.337,0.934,-0.051,0.932,0.115
2071,-11.957,2.543,0.804,0.03,0.841,0.236
2072,-12.005,2.682,0.68,0.087,0.725,0.353
2073,-12.072,2.772,0.493,0.114,0.538,0.488
2074,-12.119,2.753,0.335,0.092,0.385,0.566
2075,-12.163,2.662,0.168,0.029,0.227,0.619
2076,-12.21,2.471,-0.043,-0.118,0.026,0.643
2077,-12.249,2.294,-0.172,-0.274,-0.112,0.626
2078,-12.301,2.116,-0.268,-0.465,-0.232,0.579
2079,-12.402,1.915,-0.283,-0.757,-0.361,0.476
2080,-12.531,1.8,-0.244,-0.993,-0.431,0.376
2081,-12.704,1.738,-0.163,-1.23,-0.476,0.264
2082,-13.001,1.733,-0.038,-1.531,-0.491,0.111
2083,-13.288,1.781,0.024,-1.734,-0.463,0.001
2084,-13.724,1.877,0.062,-1.964,-0.371,-0.124
2085,-14.097,1.963,0.067,-2.104,-0.263,-0.199
2086,-14.499,2.021,0.053,-2.218,-0.13,-0.252
2087,-15.055,2.04,-0.034,-2.335,0.074,-0.294
2088,-15.462,1.992,-0.144,-2.403,0.234,-0.305
2089,-15.85,1.887,-0.297,-2.461,0.389,-0.303
2090,-16.328,1.647,-0.488,-2.533,0.567,-0.286
2091,-16.673,1.432,-0.594,-2.585,0.662,-0.268
2092,-17.085,1.14,-0.766,-2.653,0.716,-0.242
2093,-17.329,0.915,-0.967,-2.703,0.703,-0.223
2094,-17.502,0.666,-1.307,-2.749,0.649,-0.208
2095,-17.617,0.273,-1.887,-2.808,0.534,-0.201
2096,-17.626,-0.081,-2.337,-2.851,0.424,-0.212
2097,-17.602,-0.493,-2.777,-2.897,0.299,-0.242
2098,-17.559,-1.077,-3.275,-2.966,0.114,-0.318
2099,-17.549,-1.518,-3.587,-3.021,-0.032,-0.403
2100,-17.516,-2.03,-4.113,-3.092,-0.221,-0.55
2101,-17.497,-2.207,-4.64,-3.13,-0.327,-0.676
2102,-17.985,-1.614,-6.182,-2.846,-0.319,-1.157
2103,-17.731,-1.542,-7.652,-2.66,-0.137,-1.213
2104,-17.415,-1.748,-8.839,-2.441,0.157,-1.268
2105,-17.162,-2.342,-9.658,-2.132,0.597,-1.365
2106,-17.205,-3.021,-9.711,-1.898,0.895,-1.468
2107,-17.856,-4.233,-8.566,-1.595,1.143,-1.669
2108,-19.728,-4.606,-4.903,-1.392,1.081,-1.865
2109,-22.774,-3.654,-0.172,-1.185,0.626,-2.037
2110,-27.251,-0.69,3.606,-0.794,-0.33,-2.103
2111,-31.278,2.231,6.718,-0.378,-1.107,-1.969
2112,-35.453,5.143,7.479,0.303,-2.065,-1.538
2113,-36.468,5.578,4.257,0.832,-2.388,-1.125
2114,-36.703,4.741,1.312,1.255,-2.293,-0.75
2115,-37.053,2.356,0.824,1.53,-1.877,-0.429
2116,-36.885,0.148,2.054,1.538,-1.62,-0.367
2117,-36.009,-1.719,3.409,1.425,-1.531,-0.452
2118,-33.792,-3.16,4.281,1.161,-1.667,-0.713
2119,-31.56,-3.682,4.41,0.937,-1.886,-0.96
2120,-29.113,-3.946,4.693,0.729,-2.174,-1.215
2121,-25.704,-4.132,5.373,0.482,-2.696,-1.53
2122,-23.018,-4.314,5.914,0.303,-3.192,-1.737
2123,-19.211,-4.693,6.273,0.038,-3.959,-1.967
2124,-16.19,-5.052,6.024,-0.213,-4.366,-2.109
2125,-13.044,-5.373,5.229,-0.528,-4.366,-2.222
2126,-8.993,-5.564,4.223,-1.047,-4.366,-2.312
2127,-6.12,-5.511,3.644,-1.508,-4.366,-2.319
2128,-2.375,-5.401,2.571,-2.179,-4.366,-2.236
2129,0.239,-5.344,1.844,-2.683,-4.366,-2.114
2130,2.433,-5.267,1.279,-3.149,-4.366,-1.951
2131,4.29,-5.234,1.279,-3.657,-3.837,-1.671
2132,4.894,-5.349,1.949,-3.914,-2.94,-1.427
2133,4.889,-5.612,2.959,-4.049,-2.066,-1.174
2134,0.493,-8.198,6.57,-3.469,0.84,-0.477
2135,-0.962,-8.959,7.068,-3.233,1.216,-0.503
2136,-3.089,-9.926,7.7,-2.903,1.593,-0.637
2137,-4.769,-10.539,8.073,-2.644,1.794,-0.798
2138,-7.049,-11.186,8.399,-2.273,1.98,-1.063
2139,-8.724,-11.53,8.605,-1.971,2.073,-1.276
2140,-10.324,-11.751,8.777,-1.65,2.13,-1.476
2141,-12.239,-11.89,8.902,-1.206,2.152,-1.695
2142,-13.451,-11.894,8.82,-0.878,2.13,-1.8
2143,-14.404,-11.784,8.499,-0.564,2.087,-1.841
2144,-15.237,-11.463,7.752,-0.182,2.013,-1.77
2145,-15.553,-11.143,7.082,0.069,1.948,-1.615
2146,-15.615,-10.693,6.144,0.348,1.838,-1.272
2147,-15.423,-10.381,5.406,0.512,1.733,-0.922
2148,-15.06,-10.123,4.626,0.637,1.606,-0.509
2149,-14.413,-9.859,3.529,0.753,1.417,0.11
2150,-13.877,-9.701,2.739,0.81,1.273,0.599
2151,-13.35,-9.586,2.016,0.849,1.136,1.088
2152,-12.718,-9.452,1.149,0.887,0.979,1.709
2153,-12.297,-9.361,0.484,0.915,0.895,2.132
2154,-11.928,-9.299,-0.206,0.952,0.859,2.504
2155,-11.598,-9.242,-1.025,1.027,0.897,2.902
2156,-11.545,-9.203,-1.393,1.108,0.987,3.116
2157,-11.727,-9.175,-1.408,1.213,1.109,3.254
2158,-12.325,-9.074,-1.269,1.384,1.296,3.315
2159,-12.972,-8.906,-1.25,1.543,1.459,3.277
2160,-13.771,-8.643,-1.202,1.733,1.647,3.177
2161,-15.055,-8.107,-0.867,2.032,1.906,2.966
2162,-16.094,-7.551,-0.512,2.29,2.072,2.764
2163,-17.463,-6.627,0.005,2.674,2.214,2.464
2164,-18.411,-5.837,0.254,2.986,2.251,2.228
2165,-19.345,-4.946,0.579,3.315,2.219,1.994
2166,-20.48,-3.601,0.747,3.766,2.063,1.706
2167,-21.222,-2.49,0.675,4.11,1.885,1.524
2168,-21.969,-1.269,0.939,4.366,1.652,1.381
2169,-22.927,0.469,1.753,4.366,1.223,1.266
2170,-23.506,1.762,2.418,4.366,0.815,1.242
2171,-23.947,2.978,3.203,4.366,0.354,1.269
2172,-24.205,4.338,4.252,4.366,-0.327,1.369
2173,-24.009,5.095,4.659,4.366,-0.843,1.471
2174,-23.415,5.622,4.635,4.366,-1.314,1.579
2175,-22.027,5.99,4.147,4.366,-1.809,1.705
2176,-20.648,6.067,3.649,4.366,-2.072,1.77
2177,-19.082,6.048,3.093,4.366,-2.246,1.8
2178,-16.865,5.986,2.284,4.366,-2.359,1.788
2179,-15.122,5.88,1.561,4.366,-2.367,1.745
2180,-8.092,4.98,-1.958,3.103,-1.707,1.279
2181,-6.584,4.63,-2.94,2.373,-1.34,1.082
2182,-5.727,4.286,-3.677,1.835,-1.02,0.924
2183,-4.97,3.716,-4.678,1.154,-0.533,0.701
2184,-4.717,3.237,-5.306,0.679,-0.13,0.525
2185,-4.693,2.705,-5.708,0.241,0.283,0.341
2186,-4.999,1.911,-5.99,-0.281,0.816,0.082
2187,-5.444,1.307,-6.005,-0.627,1.18,-0.123
2188,-6.067,0.747,-5.885,-0.933,1.496,-0.335
2189,-7.135,0.11,-5.564,-1.282,1.822,-0.623
2190,-8.059,-0.273,-5.21,-1.5,1.984,-0.835
2191,-9.055,-0.575,-4.75,-1.68,2.062,-1.035
2192,-10.396,-0.814,-4.013,-1.864,2.022,-1.271
2193,-11.329,-0.876,-3.486,-1.964,1.886,-1.416
2194,-12.392,-0.852,-2.854,-2.051,1.578,-1.557
2195,-13.001,-0.761,-2.413,-2.09,1.268,-1.62
2196,-13.451,-0.713,-1.963,-2.106,0.904,-1.646
2197,-13.738,-0.642,-1.465,-2.108,0.36,-1.637
2198,-13.748,-0.56,-1.111,-2.097,-0.07,-1.598
2199,-13.503,-0.417,-0.661,-2.064,-0.646,-1.501
2200,-13.154,-0.345,-0.35,-2.034,-1.056,-1.397
2201,-12.675,-0.33,-0.091,-2.001,-1.431,-1.273
2202,-11.885,-0.421,0.182,-1.956,-1.851,-1.087
2203,-11.224,-0.603,0.393,-1.915,-2.097,-0.944
2204,-10.242,-0.886,0.551,-1.844,-2.333,-0.768
2205,-9.491,-1.197,0.675,-1.783,-2.423,-0.655
2206,-8.744,-1.489,0.838,-1.698,-2.45,-0.57
2207,-7.724,-1.695,1.039,-1.549,-2.39,-0.482
2208,-7.01,-1.853,1.192,-1.415,-2.27,-0.428
2209,-6.158,-2.112,1.422,-1.203,-2.033,-0.376
2210,-5.612,-2.298,1.571,-1.023,-1.804,-0.355
2211,-5.162,-2.471,1.69,-0.828,-1.543,-0.346
2212,-4.721,-2.653,1.8,-0.557,-1.159,-0.351
2213,-4.52,-2.768,1.834,-0.355,-0.855,-0.366
2214,-5.042,-2.6,1.939,0.464,0.47,-0.478
2215,-5.392,-2.37,1.92,0.596,0.691,-0.483
2216,-5.78,-2.088,1.863,0.709,0.882,-0.47
2217,-6.349,-1.7,1.791,0.832,1.094,-0.42
2218,-6.785,-1.427,1.709,0.902,1.221,-0.359
2219,-7.341,-1.12,1.556,0.964,1.348,-0.249
2220,-7.728,-0.948,1.432,0.988,1.413,-0.151
2221,-8.097,-0.828,1.298,0.995,1.454,-0.046
2222,-8.538,-0.742,1.12,0.978,1.469,0.098
2223,-8.83,-0.733,0.986,0.947,1.453,0.203
2224,-9.088,-0.747,0.867,0.906,1.414,0.301
2225,-9.395,-0.785,0.718,0.835,1.334,0.418
2226,-9.591,-0.824,0.627,0.773,1.253,0.493
2227,-9.764,-0.862,0.551,0.706,1.159,0.555
2228,-9.95,-0.905,0.484,0.611,1.017,0.617
2229,-10.056,-0.939,0.455,0.539,0.901,0.648
2230,-10.123,-0.962,0.441,0.464,0.782,0.666
2231,-10.166,-0.991,0.445,0.366,0.618,0.668
2232,-10.166,-1.01,0.45,0.294,0.497,0.654
2233,-10.123,-1.03,0.469,0.222,0.379,0.627
2234,-10.036,-1.058,0.522,0.128,0.23,0.574
2235,-9.936,-1.077,0.565,0.058,0.127,0.522
2236,-9.826,-1.092,0.632,-0.012,0.034,0.462
2237,-9.653,-1.101,0.694,-0.104,-0.074,0.374
2238,-9.51,-1.101,0.737,-0.173,-0.139,0.303
2239,-9.371,-1.101,0.785,-0.24,-0.191,0.232
2240,-9.179,-1.111,0.876,-0.327,-0.237,0.136
2241,-9.045,-1.125,0.943,-0.391,-0.256,0.066
2242,-8.882,-1.159,1.03,-0.471,-0.26,-0.023
2243,-8.787,-1.183,1.101,-0.528,-0.249,-0.084
2244,-8.701,-1.216,1.159,-0.58,-0.225,-0.144
2245,-8.624,-1.259,1.24,-0.645,-0.174,-0.215
2246,-8.586,-1.307,1.293,-0.687,-0.124,-0.263
2247,-8.562,-1.355,1.317,-0.722,-0.065,-0.307
2248,-8.557,-1.437,1.35,-0.76,0.025,-0.357
2249,-8.566,-1.504,1.36,-0.781,0.097,-0.39
2250,-8.595,-1.595,1.379,-0.798,0.196,-0.426
2251,-8.648,-1.671,1.408,-0.803,0.269,-0.448
2252,-8.705,-1.719,1.413,-0.801,0.338,-0.465
2253,-8.806,-1.776,1.398,-0.793,0.422,-0.474
2254,-8.897,-1.81,1.369,-0.786,0.479,-0.472
2255,-8.997,-1.844,1.326,-0.782,0.531,-0.466
2256,-9.141,-1.872,1.259,-0.781,0.59,-0.449
2257,-9.266,-1.891,1.211,-0.784,0.628,-0.43
2258,-9.443,-1.896,1.159,-0.789,0.667,-0.396
2259,-9.577,-1.915,1.14,-0.792,0.688,-0.364
2260,-9.716,-1.944,1.12,-0.792,0.701,-0.329
2261,-9.912,-1.997,1.116,-0.788,0.704,-0.278
2262,-10.056,-2.064,1.116,-0.781,0.698,-0.24
2263,-10.204,-2.136,1.116,-0.769,0.686,-0.204
2264,-10.357,-2.241,1.116,-0.748,0.66,-0.161
2265,-10.467,-2.318,1.116,-0.731,0.634,-0.134
2266,-10.578,-2.423,1.12,-0.707,0.593,-0.105
2267,-10.721,-2.619,1.13,-0.637,0.435,-0.055
2268,-10.716,-2.629,1.149,-0.619,0.386,-0.045
2269,-10.693,-2.638,1.164,-0.605,0.352,-0.038
2270,-10.673,-2.629,1.168,-0.591,0.321,-0.03
2271,-10.625,-2.619,1.159,-0.571,0.29,-0.019
2272,-10.602,-2.605,1.14,-0.555,0.275,-0.011
2273,-10.568,-2.595,1.106,-0.538,0.268,-0.002
2274,-10.53,-2.586,1.082,-0.513,0.272,0.01
2275,-10.511,-2.576,1.063,-0.493,0.285,0.018
2276,-10.501,-2.562,1.02,-0.465,0.316,0.027
2277,-10.511,-2.547,0.986,-0.443,0.346,0.034
2278,-10.53,-2.528,0.958,-0.419,0.383,0.04
2279,-10.558,-2.48,0.915,-0.388,0.438,0.046
2280,-10.587,-2.447,0.881,-0.364,0.482,0.05
2281,-10.625,-2.418,0.843,-0.341,0.526,0.054
2282,-10.702,-2.361,0.804,-0.312,0.581,0.058
2283,-10.75,-2.303,0.766,-0.292,0.618,0.061
2284,-10.793,-2.246,0.742,-0.274,0.646,0.065
2285,-10.855,-2.16,0.723,-0.252,0.67,0.07
2286,-10.898,-2.088,0.737,-0.236,0.675,0.076
2287,-10.908,-2.021,0.747,-0.222,0.667,0.083
2288,-10.903,-1.925,0.776,-0.203,0.634,0.094
2289,-10.874,-1.853,0.809,-0.189,0.593,0.103
2290,-10.803,-1.767,0.848,-0.169,0.52,0.116
2291,-10.731,-1.714,0.881,-0.153,0.452,0.126
2292,-10.654,-1.671,0.915,-0.136,0.376,0.135
2293,-10.511,-1.618,0.958,-0.113,0.268,0.147
2294,-10.391,-1.58,0.986,-0.094,0.185,0.154
2295,-10.266,-1.547,1.01,-0.075,0.105,0.16
2296,-10.089,-1.508,1.034,-0.051,0.008,0.166
2297,-9.946,-1.48,1.03,-0.033,-0.053,0.169
2298,-9.802,-1.451,1.025,-0.015,-0.102,0.171
2299,-9.596,-1.413,0.996,0.006,-0.146,0.171
2300,-9.443,-1.374,0.977,0.021,-0.162,0.171
2301,-9.285,-1.346,0.943,0.037,-0.163,0.169
2302,-9.084,-1.293,0.915,0.056,-0.143,0.165
2303,-8.94,-1.245,0.891,0.07,-0.115,0.162
2304,-8.739,-1.183,0.867,0.091,-0.063,0.155
2305,-8.59,-1.144,0.848,0.107,-0.017,0.15
2306,-8.456,-1.097,0.843,0.122,0.033,0.144
2307,-8.294,-1.03,0.833,0.144,0.1,0.136
2308,-8.188,-0.967,0.819,0.162,0.149,0.129
2309,-8.102,-0.919,0.8,0.179,0.195,0.123
2310,-8.006,-0.843,0.761,0.2,0.248,0.115
2311,-7.954,-0.785,0.737,0.215,0.282,0.11
2312,-7.906,-0.723,0.723,0.23,0.31,0.105
2313,-7.872,-0.642,0.704,0.246,0.337,0.1
2314,-7.858,-0.579,0.69,0.255,0.351,0.098
2315,-7.858,-0.517,0.68,0.263,0.358,0.097
2316,-7.858,-0.426,0.69,0.27,0.359,0.097
2317,-7.877,-0.364,0.69,0.272,0.354,0.097
2318,-7.882,-0.302,0.69,0.272,0.344,0.099
2319,-7.887,-0.235,0.713,0.271,0.324,0.1
2320,-7.891,-0.192,0.728,0.268,0.304,0.101
2321,-7.872,-0.158,0.747,0.265,0.281,0.102
2322,-7.843,-0.12,0.776,0.262,0.246,0.1
2323,-7.618,-0.091,0.819,0.252,0.127,0.076
2324,-7.547,-0.096,0.8,0.251,0.104,0.066
2325,-7.436,-0.11,0.785,0.25,0.08,0.051
2326,-7.369,-0.124,0.771,0.249,0.068,0.039
2327,-7.307,-0.139,0.757,0.248,0.062,0.025
2328,-7.23,-0.153,0.718,0.247,0.064,0.005
2329,-7.178,-0.158,0.699,0.245,0.073,-0.01
2330,-7.12,-0.168,0.661,0.243,0.095,-0.03
2331,-7.092,-0.177,0.632,0.241,0.119,-0.045
2332,-7.072,-0.182,0.613,0.238,0.147,-0.059
2333,-7.063,-0.201,0.579,0.234,0.193,-0.077
2334,-7.058,-0.206,0.56,0.232,0.232,-0.089
2335,-7.068,-0.215,0.536,0.228,0.273,-0.1
2336,-7.092,-0.23,0.512,0.222,0.329,-0.111
2337,-7.116,-0.235,0.493,0.217,0.371,-0.119
2338,-7.144,-0.249,0.479,0.211,0.41,-0.124
2339,-7.178,-0.263,0.45,0.202,0.457,-0.128
2340,-7.211,-0.273,0.436,0.195,0.486,-0.129
2341,-7.25,-0.278,0.426,0.188,0.511,-0.128
2342,-7.288,-0.302,0.426,0.178,0.533,-0.123
2343,-7.317,-0.302,0.426,0.171,0.54,-0.118
2344,-7.345,-0.306,0.436,0.164,0.539,-0.109
2345,-7.369,-0.306,0.455,0.161,0.529,-0.101
2346,-7.365,-0.302,0.464,0.159,0.512,-0.092
2347,-7.35,-0.306,0.464,0.161,0.48,-0.078
2348,-7.331,-0.306,0.464,0.164,0.449,-0.067
2349,-7.302,-0.311,0.469,0.17,0.413,-0.056
2350,-7.226,-0.33,0.488,0.182,0.361,-0.044
2351,-7.163,-0.345,0.484,0.192,0.318,-0.035
2352,-7.092,-0.364,0.474,0.203,0.275,-0.029
2353,-6.977,-0.388,0.464,0.219,0.219,-0.022
2354,-6.881,-0.407,0.46,0.23,0.18,-0.018
2355,-6.785,-0.426,0.441,0.243,0.145,-0.017
2356,-6.646,-0.445,0.431,0.258,0.104,-0.017
2357,-6.546,-0.464,0.417,0.269,0.08,-0.02
2358,-6.431,-0.484,0.421,0.284,0.056,-0.023
2359,-6.349,-0.493,0.417,0.295,0.045,-0.028
2360,-6.273,-0.508,0.407,0.305,0.041,-0.033
2361,-6.187,-0.527,0.393,0.319,0.045,-0.041
2362,-6.115,-0.546,0.378,0.329,0.055,-0.047
2363,-6.062,-0.565,0.373,0.339,0.072,-0.054
2364,-6.014,-0.594,0.354,0.351,0.103,-0.065
2365,-5.981,-0.622,0.359,0.359,0.132,-0.073
2366,-5.966,-0.656,0.354,0.367,0.164,-0.081
2367,-5.962,-0.713,0.335,0.376,0.212,-0.091
2368,-5.966,-0.761,0.33,0.383,0.25,-0.099
2369,-5.981,-0.804,0.33,0.389,0.29,-0.106
2370,-6.024,-0.857,0.321,0.396,0.344,-0.114
2371,-6.067,-0.9,0.306,0.402,0.384,-0.119
2372,-6.115,-0.943,0.302,0.408,0.422,-0.123
2373,-6.196,-1.006,0.287,0.417,0.469,-0.125
2374,-6.268,-1.053,0.278,0.424,0.502,-0.124
2375,-6.383,-1.111,0.254,0.435,0.541,-0.122
2376,-6.483,-1.149,0.23,0.444,0.568,-0.118
2377,-6.589,-1.197,0.196,0.452,0.593,-0.113
2378,-6.752,-1.259,0.158,0.463,0.625,-0.103
2379,-6.881,-1.302,0.124,0.473,0.649,-0.094
2380,-7.02,-1.346,0.086,0.481,0.673,-0.084
2381,-7.216,-1.393,0.038,0.49,0.703,-0.066
2382,-7.36,-1.427,-0.01,0.497,0.725,-0.051
2383,-7.508,-1.456,-0.053,0.504,0.745,-0.035
2384,-7.7,-1.489,-0.12,0.511,0.769,-0.011
2385,-7.843,-1.518,-0.163,0.515,0.782,0.009
2386,-7.987,-1.537,-0.215,0.52,0.792,0.03
2387,-8.179,-1.561,-0.268,0.526,0.797,0.058
2388,-8.317,-1.566,-0.316,0.53,0.794,0.082
2389,-8.49,-1.566,-0.373,0.537,0.779,0.111
2390,-8.61,-1.571,-0.417,0.542,0.761,0.133
2391,-8.724,-1.566,-0.441,0.548,0.737,0.155
2392,-8.844,-1.556,-0.488,0.554,0.695,0.183
2393,-8.926,-1.551,-0.532,0.559,0.657,0.203
2394,-8.988,-1.542,-0.584,0.565,0.615,0.221
2395,-9.06,-1.513,-0.642,0.572,0.555,0.242
2396,-9.093,-1.494,-0.666,0.576,0.506,0.256
2397,-9.112,-1.484,-0.699,0.581,0.454,0.267
2398,-9.117,-1.46,-0.728,0.587,0.382,0.277
2399,-8.973,-1.417,-0.828,0.592,0.15,0.265
2400,-8.906,-1.403,-0.833,0.59,0.087,0.248
2401,-8.859,-1.393,-0.838,0.587,0.044,0.231
2402,-8.801,-1.389,-0.833,0.583,0.007,0.211
2403,-8.724,-1.374,-0.819,0.576,-0.032,0.179
2404,-8.681,-1.365,-0.809,0.568,-0.054,0.153
2405,-8.633,-1.355,-0.804,0.555,-0.073,0.116
2406,-8.605,-1.35,-0.781,0.543,-0.079,0.086
2407,-8.571,-1.355,-0.747,0.53,-0.078,0.056
2408,-8.543,-1.36,-0.699,0.508,-0.068,0.017
2409,-8.519,-1.369,-0.666,0.49,-0.055,-0.011
2410,-8.509,-1.379,-0.637,0.471,-0.037,-0.04
2411,-8.509,-1.408,-0.594,0.442,-0.006,-0.074
2412,-8.519,-1.427,-0.555,0.418,0.019,-0.098
2413,-8.538,-1.456,-0.498,0.388,0.055,-0.125
2414,-8.562,-1.489,-0.46,0.365,0.082,-0.141
2415,-8.581,-1.528,-0.436,0.342,0.11,-0.155
2416,-8.619,-1.59,-0.397,0.313,0.145,-0.168
2417,-8.653,-1.642,-0.378,0.294,0.17,-0.174
2418,-8.691,-1.686,-0.354,0.276,0.193,-0.177
2419,-8.744,-1.753,-0.326,0.256,0.219,-0.174
2420,-8.772,-1.791,-0.335,0.244,0.235,-0.167
2421,-8.815,-1.858,-0.326,0.232,0.251,-0.153
2422,-8.839,-1.901,-0.316,0.227,0.26,-0.139
2423,-8.868,-1.944,-0.321,0.226,0.265,-0.122
2424,-8.892,-1.997,-0.33,0.23,0.267,-0.095
2425,-8.911,-2.035,-0.34,0.238,0.265,-0.072
2426,-8.93,-2.069,-0.359,0.249,0.261,-0.047
2427,-8.954,-2.097,-0.397,0.27,0.252,-0.013
2428,-8.969,-2.116,-0.417,0.29,0.242,0.015
2429,-8.988,-2.131,-0.441,0.322,0.227,0.051
2430,-9.007,-2.136,-0.45,0.35,0.215,0.077
2431,-9.021,-2.136,-0.474,0.379,0.203,0.104
2432,-9.031,-2.131,-0.508,0.423,0.187,0.137
2433,-9.041,-2.112,-0.541,0.457,0.176,0.159
2434,-9.06,-2.097,-0.575,0.492,0.167,0.18
2435,-9.074,-2.083,-0.627,0.537,0.157,0.204
2436,-9.084,-2.073,-0.651,0.569,0.151,0.22
2437,-9.088,-2.059,-0.67,0.599,0.146,0.232
2438,-9.108,-2.04,-0.699,0.635,0.142,0.244
2439,-9.122,-2.016,-0.728,0.657,0.14,0.25
2440,-9.136,-2.006,-0.761,0.675,0.138,0.254
2441,-9.16,-1.978,-0.781,0.693,0.137,0.256
2442,-9.179,-1.954,-0.785,0.702,0.137,0.256
2443,-9.213,-1.93,-0.795,0.707,0.137,0.254
2444,-9.232,-1.911,-0.809,0.708,0.137,0.251
2445,-9.261,-1.882,-0.814,0.705,0.136,0.248
2446,-9.285,-1.848,-0.819,0.698,0.134,0.243
2447,-9.294,-1.824,-0.814,0.689,0.13,0.24
2448,-9.304,-1.8,-0.804,0.68,0.124,0.237
2449,-9.304,-1.767,-0.795,0.665,0.111,0.234
2450,-9.294,-1.743,-0.781,0.653,0.098,0.232
2451,-9.28,-1.729,-0.766,0.641,0.081,0.231
2452,-9.251,-1.714,-0.747,0.624,0.055,0.23
2453,-9.222,-1.695,-0.728,0.611,0.032,0.229
2454,-9.189,-1.681,-0.723,0.598,0.007,0.229
2455,-9.141,-1.647,-0.718,0.582,-0.028,0.229
2456,-8.93,-1.566,-0.713,0.534,-0.141,0.225
2457,-8.859,-1.537,-0.699,0.518,-0.17,0.222
2458,-8.811,-1.513,-0.699,0.506,-0.189,0.218
2459,-8.753,-1.484,-0.709,0.494,-0.206,0.215
2460,-8.691,-1.451,-0.728,0.477,-0.224,0.207
2461,-8.653,-1.432,-0.728,0.463,-0.233,0.199
2462,-8.605,-1.403,-0.733,0.442,-0.239,0.188
2463,-8.576,-1.379,-0.733,0.425,-0.239,0.179
2464,-8.557,-1.369,-0.752,0.407,-0.235,0.169
2465,-8.547,-1.341,-0.757,0.381,-0.223,0.154
2466,-8.547,-1.326,-0.771,0.359,-0.21,0.143
2467,-8.557,-1.317,-0.781,0.336,-0.195,0.131
2468,-8.571,-1.302,-0.785,0.303,-0.171,0.116
2469,-8.59,-1.288,-0.785,0.278,-0.153,0.104
2470,-8.619,-1.279,-0.781,0.242,-0.127,0.09
2471,-8.657,-1.274,-0.771,0.213,-0.108,0.08
2472,-8.686,-1.269,-0.766,0.186,-0.092,0.07
2473,-8.739,-1.269,-0.757,0.149,-0.074,0.058
2474,-8.772,-1.269,-0.742,0.121,-0.065,0.051
2475,-8.801,-1.274,-0.728,0.095,-0.06,0.045
2476,-8.835,-1.279,-0.694,0.062,-0.06,0.037
2477,-8.863,-1.283,-0.675,0.039,-0.064,0.033
2478,-8.892,-1.302,-0.651,0.01,-0.076,0.028
2479,-8.916,-1.312,-0.627,-0.01,-0.09,0.025
2480,-8.935,-1.322,-0.599,-0.027,-0.106,0.021
2481,-8.95,-1.341,-0.579,-0.049,-0.133,0.018
2482,-8.964,-1.355,-0.541,-0.064,-0.155,0.015
2483,-8.969,-1.379,-0.508,-0.08,-0.184,0.012
2484,-8.969,-1.398,-0.479,-0.09,-0.207,0.008
2485,-8.959,-1.413,-0.455,-0.1,-0.228,0.006
2486,-8.945,-1.437,-0.421,-0.112,-0.255,0.002
2487,-8.935,-1.456,-0.393,-0.118,-0.272,-0.001
2488,-8.926,-1.47,-0.378,-0.125,-0.284,-0.005
2489,-8.906,-1.489,-0.364,-0.132,-0.294,-0.01
2490,-8.902,-1.508,-0.359,-0.137,-0.296,-0.014
2491,-8.887,-1.528,-0.35,-0.144,-0.29,-0.02
2492,-8.882,-1.551,-0.335,-0.149,-0.28,-0.024
2493,-8.878,-1.59,-0.326,-0.155,-0.258,-0.03
2494,-8.892,-1.618,-0.326,-0.16,-0.238,-0.034
2495,-8.983,-1.724,-0.259,-0.178,-0.118,-0.043
2496,-9.007,-1.738,-0.254,-0.179,-0.093,-0.041
2497,-9.031,-1.757,-0.249,-0.18,-0.07,-0.039
2498,-9.05,-1.776,-0.244,-0.178,-0.045,-0.033
2499,-9.069,-1.791,-0.235,-0.175,-0.031,-0.026
2500,-9.084,-1.805,-0.22,-0.167,-0.018,-0.016
2501,-9.103,-1.805,-0.211,-0.159,-0.014,-0.007
2502,-9.122,-1.815,-0.206,-0.15,-0.015,0.003
2503,-9.141,-1.82,-0.206,-0.136,-0.021,0.018
2504,-9.155,-1.82,-0.206,-0.124,-0.03,0.029
2505,-9.165,-1.829,-0.225,-0.108,-0.044,0.045
2506,-9.165,-1.82,-0.235,-0.096,-0.056,0.057
2507,-9.165,-1.805,-0.259,-0.083,-0.069,0.069
2508,-9.16,-1.786,-0.283,-0.066,-0.085,0.085
2509,-9.146,-1.772,-0.302,-0.054,-0.095,0.096
2510,-9.127,-1.743,-0.345,-0.039,-0.105,0.111
2511,-9.112,-1.719,-0.378,-0.028,-0.111,0.121
2512,-9.093,-1.69,-0.407,-0.018,-0.114,0.13
2513,-9.079,-1.652,-0.445,-0.005,-0.115,0.142
2514,-9.06,-1.614,-0.474,0.002,-0.115,0.15
2515,-9.041,-1.58,-0.493,0.009,-0.113,0.157
2516,-9.017,-1.528,-0.512,0.016,-0.111,0.165
2517,-9.007,-1.489,-0.527,0.021,-0.11,0.168
2518,-8.969,-1.441,-0.536,0.023,-0.111,0.172
2519,-8.94,-1.398,-0.536,0.023,-0.112,0.174
2520,-8.911,-1.374,-0.565,0.021,-0.115,0.174
2521,-8.882,-1.326,-0.579,0.015,-0.122,0.172
2522,-8.854,-1.293,-0.594,0.008,-0.128,0.169
2523,-8.82,-1.259,-0.618,-0.0,-0.136,0.165
2524,-8.796,-1.216,-0.651,-0.015,-0.145,0.158
2525,-8.777,-1.188,-0.661,-0.029,-0.153,0.152
2526,-8.744,-1.149,-0.675,-0.05,-0.163,0.142
2527,-8.724,-1.12,-0.699,-0.066,-0.17,0.135
2528,-8.696,-1.092,-0.709,-0.084,-0.175,0.126
2529,-8.667,-1.049,-0.718,-0.11,-0.182,0.114
2530,-8.523,-0.939,-0.699,-0.192,-0.208,0.074
2531,-8.471,-0.91,-0.718,-0.215,-0.219,0.062
2532,-8.432,-0.895,-0.718,-0.231,-0.228,0.053
2533,-8.38,-0.876,-0.723,-0.25,-0.242,0.04
2534,-8.332,-0.867,-0.709,-0.265,-0.253,0.03
2535,-8.274,-0.867,-0.69,-0.278,-0.264,0.02
2536,-8.207,-0.852,-0.675,-0.295,-0.282,0.007
2537,-8.145,-0.848,-0.661,-0.306,-0.296,-0.004
2538,-8.073,-0.852,-0.637,-0.322,-0.316,-0.018
2539,-8.006,-0.857,-0.622,-0.333,-0.332,-0.029
2540,-7.934,-0.852,-0.608,-0.343,-0.348,-0.04
2541,-7.834,-0.867,-0.579,-0.358,-0.37,-0.054
2542,-7.752,-0.876,-0.551,-0.368,-0.387,-0.064
2543,-7.638,-0.891,-0.517,-0.38,-0.408,-0.077
2544,-7.547,-0.9,-0.493,-0.387,-0.424,-0.086
2545,-7.456,-0.905,-0.464,-0.392,-0.441,-0.095
2546,-7.312,-0.915,-0.426,-0.396,-0.463,-0.104
2547,-7.197,-0.91,-0.388,-0.398,-0.48,-0.109
2548,-7.039,-0.9,-0.33,-0.395,-0.505,-0.114
2549,-6.919,-0.891,-0.287,-0.389,-0.524,-0.116
2550,-6.785,-0.881,-0.235,-0.381,-0.544,-0.116
2551,-6.613,-0.862,-0.182,-0.365,-0.572,-0.113
2552,-6.483,-0.838,-0.134,-0.349,-0.593,-0.11
2553,-6.297,-0.804,-0.067,-0.324,-0.621,-0.103
2554,-6.153,-0.781,-0.034,-0.302,-0.64,-0.097
2555,-6.009,-0.747,-0.005,-0.277,-0.659,-0.09
2556,-5.818,-0.704,0.034,-0.242,-0.681,-0.081
2557,-5.669,-0.675,0.053,-0.214,-0.694,-0.073
2558,-5.464,-0.632,0.096,-0.176,-0.709,-0.064
2559,-4.812,-0.455,0.196,-0.054,-0.729,-0.041
2560,-4.616,-0.402,0.225,-0.021,-0.73,-0.038
2561,-4.468,-0.359,0.239,0.001,-0.729,-0.037
2562,-4.324,-0.33,0.249,0.021,-0.727,-0.036
2563,-4.123,-0.283,0.249,0.046,-0.721,-0.039
2564,-3.989,-0.244,0.254,0.061,-0.714,-0.041
2565,-3.855,-0.206,0.249,0.074,-0.704,-0.044
2566,-3.687,-0.153,0.239,0.089,-0.687,-0.05
2567,-3.572,-0.105,0.225,0.099,-0.671,-0.054
2568,-3.438,-0.029,0.211,0.109,-0.645,-0.06
2569,-3.342,0.024,0.206,0.114,-0.624,-0.063
2570,-3.261,0.091,0.215,0.119,-0.601,-0.066
2571,-3.16,0.177,0.235,0.124,-0.57,-0.068
2572,-3.112,0.244,0.244,0.125,-0.546,-0.068
2573,-3.065,0.306,0.249,0.124,-0.522,-0.068
2574,-3.012,0.388,0.249,0.12,-0.49,-0.067
2575,-2.983,0.45,0.263,0.115,-0.466,-0.066
2576,-2.974,0.503,0.268,0.105,-0.441,-0.065
2577,-2.974,0.565,0.278,0.088,-0.406,-0.064
2578,-2.988,0.608,0.278,0.071,-0.379,-0.064
2579,-3.026,0.646,0.283,0.042,-0.34,-0.064
2580,-3.074,0.666,0.316,0.016,-0.308,-0.066
2581,-3.136,0.67,0.34,-0.014,-0.274,-0.068
2582,-3.242,0.68,0.369,-0.058,-0.225,-0.073
2583,-3.342,0.675,0.397,-0.095,-0.185,-0.078
2584,-3.452,0.656,0.426,-0.134,-0.143,-0.084
2585,-3.639,0.622,0.474,-0.188,-0.081,-0.093
2586,-3.783,0.589,0.522,-0.229,-0.031,-0.101
2587,-3.998,0.536,0.579,-0.283,0.038,-0.111
2588,-4.18,0.498,0.627,-0.323,0.092,-0.12
2589,-4.372,0.464,0.69,-0.36,0.148,-0.127
2590,-4.64,0.407,0.761,-0.405,0.222,-0.136
2591,-4.841,0.359,0.814,-0.436,0.278,-0.141
2592,-5.042,0.326,0.852,-0.462,0.331,-0.144
2593,-5.306,0.273,0.91,-0.491,0.397,-0.147
2594,-5.502,0.239,0.953,-0.507,0.441,-0.146
2595,-5.684,0.201,1.006,-0.519,0.477,-0.142
2596,-5.923,0.168,1.077,-0.528,0.511,-0.134
2597,-6.076,0.148,1.135,-0.53,0.523,-0.126
2598,-6.22,0.129,1.202,-0.53,0.523,-0.116
2599,-6.383,0.101,1.283,-0.524,0.5,-0.099
2600,-6.488,0.077,1.36,-0.517,0.465,-0.085
2601,-6.579,0.043,1.427,-0.504,0.394,-0.066
2602,-6.608,0.01,1.47,-0.492,0.324,-0.053
2603,-6.608,-0.034,1.504,-0.478,0.241,-0.04
2604,-6.551,-0.081,1.508,-0.457,0.116,-0.026
2605,-6.483,-0.124,1.499,-0.439,0.013,-0.017
2606,-6.388,-0.172,1.48,-0.42,-0.093,-0.011
2607,-6.22,-0.235,1.456,-0.391,-0.236,-0.007
2608,-6.081,-0.273,1.437,-0.366,-0.34,-0.007
2609,-5.871,-0.326,1.379,-0.33,-0.471,-0.009
2610,-5.698,-0.359,1.331,-0.301,-0.556,-0.014
2611,-5.526,-0.388,1.283,-0.271,-0.63,-0.02
2612,-5.301,-0.407,1.216,-0.228,-0.707,-0.03
2613,-4.678,-0.45,1.053,-0.079,-0.761,-0.07
2614,-4.549,-0.45,0.996,-0.037,-0.716,-0.082
2615,-4.482,-0.45,0.962,-0.009,-0.665,-0.09
2616,-4.444,-0.441,0.934,0.017,-0.602,-0.097
2617,-4.439,-0.441,0.91,0.044,-0.501,-0.105
2618,-4.477,-0.445,0.886,0.058,-0.415,-0.109
2619,-4.578,-0.45,0.871,0.07,-0.292,-0.112
2620,-4.688,-0.46,0.871,0.072,-0.194,-0.112
2621,-4.831,-0.474,0.871,0.07,-0.093,-0.113
2622,-5.076,-0.508,0.867,0.058,0.044,-0.111
2623,-5.301,-0.532,0.862,0.042,0.146,-0.107
2624,-5.545,-0.56,0.862,0.022,0.248,-0.104
2625,-5.904,-0.599,0.843,-0.01,0.38,-0.098
2626,-6.196,-0.627,0.833,-0.039,0.474,-0.091
2627,-6.603,-0.661,0.809,-0.081,0.592,-0.079
2628,-6.924,-0.675,0.781,-0.113,0.672,-0.068
2629,-7.25,-0.675,0.747,-0.145,0.745,-0.056
2630,-7.676,-0.651,0.728,-0.188,0.825,-0.034
2631,-7.997,-0.618,0.728,-0.216,0.869,-0.013
2632,-8.313,-0.57,0.728,-0.243,0.897,0.011
2633,-8.71,-0.493,0.747,-0.274,0.907,0.047
2634,-8.978,-0.431,0.781,-0.293,0.891,0.08
2635,-9.222,-0.354,0.804,-0.309,0.856,0.114
2636,-9.491,-0.244,0.819,-0.324,0.781,0.162
2637,-9.649,-0.172,0.814,-0.331,0.705,0.199
2638,-9.787,-0.091,0.814,-0.333,0.58,0.244
2639,-9.84,-0.048,0.828,-0.328,0.472,0.274
2640,-9.845,-0.019,0.857,-0.32,0.352,0.3
2641,-9.792,0.01,0.891,-0.301,0.182,0.323
2642,-9.706,0.014,0.924,-0.28,0.049,0.332
2643,-9.586,0.0,0.943,-0.254,-0.084,0.333
2644,-9.366,-0.024,0.986,-0.21,-0.254,0.322
2645,-9.189,-0.043,1.039,-0.17,-0.375,0.304
2646,-8.993,-0.067,1.097,-0.124,-0.484,0.277
2647,-8.705,-0.091,1.168,-0.054,-0.612,0.232
2648,-8.485,-0.105,1.221,0.004,-0.689,0.191
2649,-8.27,-0.11,1.269,0.067,-0.748,0.146
2650,-7.997,-0.115,1.322,0.156,-0.797,0.079
2651,-7.805,-0.105,1.36,0.224,-0.809,0.026
2652,-7.566,-0.096,1.384,0.317,-0.791,-0.046
2653,-7.408,-0.077,1.384,0.385,-0.752,-0.098
2654,-7.278,-0.038,1.379,0.451,-0.691,-0.15
2655,-7.149,0.024,1.365,0.532,-0.58,-0.212
2656,-7.092,0.091,1.35,0.585,-0.477,-0.251
2657,-7.063,0.163,1.336,0.632,-0.362,-0.286
2658,-7.092,0.273,1.307,0.678,-0.196,-0.32
2659,-7.149,0.359,1.279,0.699,-0.068,-0.336
2660,-7.235,0.445,1.231,0.709,0.061,-0.346
2661,-7.379,0.541,1.164,0.699,0.226,-0.346
2662,-7.508,0.608,1.111,0.676,0.34,-0.338
2663,-7.657,0.656,1.034,0.639,0.442,-0.324
2664,-7.867,0.675,0.948,0.571,0.556,-0.299
2665,-8.025,0.666,0.881,0.506,0.622,-0.276
2666,-8.255,0.622,0.809,0.405,0.685,-0.242
2667,-8.442,0.555,0.757,0.321,0.712,-0.216
2668,-8.629,0.469,0.723,0.232,0.722,-0.191
2669,-8.868,0.326,0.699,0.111,0.711,-0.158
2670,-9.05,0.211,0.699,0.019,0.685,-0.135
2671,-9.227,0.091,0.694,-0.069,0.647,-0.113
2672,-9.467,-0.067,0.713,-0.183,0.583,-0.086
2673,-9.653,-0.182,0.747,-0.262,0.525,-0.066
2674,-9.826,-0.292,0.785,-0.335,0.463,-0.047
2675,-10.032,-0.436,0.857,-0.422,0.377,-0.024
2676,-10.582,-0.804,0.881,-0.615,0.156,0.04
2677,-10.745,-0.848,0.867,-0.643,0.13,0.056
2678,-10.87,-0.857,0.838,-0.655,0.125,0.068
2679,-10.999,-0.843,0.79,-0.659,0.134,0.078
2680,-11.167,-0.809,0.699,-0.652,0.169,0.091
2681,-11.277,-0.761,0.637,-0.64,0.208,0.099
2682,-11.377,-0.704,0.584,-0.622,0.255,0.106
2683,-11.497,-0.618,0.527,-0.589,0.321,0.111
2684,-11.569,-0.551,0.498,-0.559,0.367,0.113
2685,-11.612,-0.493,0.484,-0.527,0.404,0.112
2686,-11.621,-0.441,0.474,-0.48,0.433,0.106
2687,-11.602,-0.402,0.498,-0.443,0.434,0.097
2688,-11.554,-0.388,0.503,-0.393,0.402,0.078
2689,-11.492,-0.397,0.493,-0.356,0.355,0.059
2690,-11.416,-0.426,0.498,-0.319,0.291,0.035
2691,-11.296,-0.469,0.498,-0.273,0.18,-0.003
2692,-11.195,-0.503,0.484,-0.24,0.084,-0.034
2693,-11.09,-0.532,0.455,-0.209,-0.02,-0.067
2694,-10.961,-0.555,0.441,-0.166,-0.161,-0.113
2695,-10.87,-0.565,0.46,-0.135,-0.266,-0.147
2696,-10.745,-0.57,0.469,-0.094,-0.397,-0.19
2697,-10.645,-0.56,0.474,-0.065,-0.485,-0.218
2698,-10.534,-0.536,0.474,-0.035,-0.56,-0.244
2699,-10.376,-0.498,0.479,0.0,-0.638,-0.272
2700,-10.228,-0.474,0.469,0.023,-0.678,-0.288
2701,-10.065,-0.445,0.464,0.044,-0.704,-0.301
2702,-9.835,-0.421,0.46,0.065,-0.715,-0.313
2703,-9.653,-0.412,0.464,0.074,-0.709,-0.32
2704,-9.433,-0.431,0.469,0.077,-0.684,-0.326
2705,-9.275,-0.474,0.469,0.073,-0.653,-0.329
2706,-9.131,-0.522,0.436,0.061,-0.611,-0.334
2707,-8.978,-0.608,0.359,0.036,-0.536,-0.339
2708,-8.892,-0.704,0.306,0.009,-0.465,-0.345
2709,-8.844,-0.809,0.239,-0.023,-0.381,-0.352
2710,-8.859,-0.948,0.153,-0.071,-0.251,-0.363
2711,-8.921,-1.053,0.12,-0.11,-0.143,-0.371
2712,-9.084,-1.173,0.11,-0.161,0.011,-0.381
2713,-10.06,-1.504,0.326,-0.267,0.495,-0.385
2714,-10.357,-1.58,0.335,-0.274,0.591,-0.378
2715,-10.779,-1.681,0.259,-0.274,0.711,-0.366
2716,-11.1,-1.753,0.177,-0.268,0.796,-0.353
2717,-11.535,-1.834,0.043,-0.254,0.906,-0.334
2718,-11.847,-1.896,-0.115,-0.241,0.985,-0.318
2719,-12.153,-1.949,-0.316,-0.228,1.066,-0.3
2720,-12.584,-2.002,-0.517,-0.209,1.175,-0.274
2721,-12.89,-2.045,-0.632,-0.194,1.251,-0.254
2722,-13.283,-2.088,-0.747,-0.171,1.337,-0.225
2723,-13.561,-2.112,-0.824,-0.152,1.386,-0.203
2724,-13.834,-2.131,-0.905,-0.128,1.421,-0.182
2725,-14.15,-2.14,-0.986,-0.086,1.441,-0.155
2726,-14.341,-2.16,-1.02,-0.047,1.433,-0.136
2727,-14.547,-2.174,-1.058,0.018,1.39,-0.114
2728,-14.638,-2.188,-1.13,0.077,1.337,-0.1
2729,-14.691,-2.212,-1.221,0.145,1.271,-0.09
2730,-14.71,-2.231,-1.322,0.25,1.166,-0.08
2731,-14.681,-2.227,-1.403,0.34,1.078,-0.075
2732,-14.643,-2.198,-1.523,0.441,0.985,-0.074
2733,-14.557,-2.121,-1.724,0.587,0.864,-0.074
2734,-14.485,-2.021,-1.915,0.704,0.781,-0.074
2735,-14.399,-1.848,-2.203,0.868,0.691,-0.075
2736,-14.356,-1.69,-2.375,0.993,0.64,-0.075
2737,-14.356,-1.513,-2.495,1.117,0.601,-0.075
2738,-14.408,-1.264,-2.533,1.276,0.56,-0.074
2739,-14.504,-1.092,-2.433,1.387,0.528,-0.075
2740,-14.643,-0.967,-2.251,1.483,0.488,-0.08
2741,-14.834,-0.857,-1.949,1.589,0.411,-0.096
2742,-14.997,-0.833,-1.69,1.65,0.336,-0.118
2743,-15.716,-0.943,-0.115,1.69,-0.239,-0.326
